Time	ax	ay	az	gx\gy\gz
0.013	-0.050295410156250005	0.0047900390625	9.84592529296875	-0.152587890625	0.02288818359375	0.06866455078125
0.021	0.026345214843750003	0.04071533203125	9.84113525390625	-0.2288818359375	0.22125244140625	0.1068115234375
0.029	-0.026345214843750003	0.03592529296875	9.821975097656251	-0.1220703125	0.35858154296875	0.03814697265625
0.037	-0.047900390625000004	0.023950195312500002	9.85550537109375	-0.22125244140625	0.25177001953125	0.03814697265625
0.046	-0.02155517578125	-0.01676513671875	9.81239501953125	-0.17547607421875	0.1220703125	0.06866455078125
0.054	0.009580078125	0.050295410156250005	9.836345214843751	-0.244140625	-0.06866455078125	-0.030517578125
0.062	-0.047900390625000004	-0.01676513671875	9.86508544921875	-0.1373291015625	-0.17547607421875	0.0152587890625
0.07	-0.055085449218750006	0.00239501953125	9.8722705078125	-0.11444091796875	-0.396728515625	0.11444091796875
0.078	0.00718505859375	0.06945556640625	9.8243701171875	-0.244140625	-0.30517578125	0.03814697265625
0.087	0.009580078125	0.0047900390625	9.81	-0.42724609375	-0.11444091796875	-0.02288818359375
0.095	0.03113525390625	0.067060546875	9.867480468750001	-0.1983642578125	-0.1373291015625	-0.0152587890625
0.104	0.0	0.09580078125000001	9.8435302734375	-0.2288818359375	-0.29754638671875	-0.06103515625
0.112	0.0	-0.00239501953125	9.8339501953125	-0.22125244140625	0.1983642578125	-0.0457763671875
0.12	0.04071533203125	0.0	9.85071533203125	-0.1678466796875	-0.06103515625	0.16021728515625
0.129	-0.011975097656250001	0.0143701171875	9.821975097656251	-0.152587890625	0.12969970703125	-0.02288818359375
0.137	0.011975097656250001	-0.05748046875	9.8052099609375	-0.23651123046875	0.16021728515625	0.0152587890625
0.145	-0.01676513671875	0.01676513671875	9.81	0.030517578125	0.274658203125	0.08392333984375
0.153	-0.00718505859375	-0.009580078125	9.838740234375	-0.37384033203125	0.0457763671875	0.18310546875
0.161	-0.026345214843750003	0.01916015625	9.79802490234375	-0.19073486328125	0.091552734375	0.16021728515625
0.171	-0.06945556640625	0.06466552734375	9.84592529296875	-0.152587890625	-0.1220703125	0.152587890625
0.18	-0.052690429687500005	0.07424560546875	9.86987548828125	-0.22125244140625	-0.0762939453125	0.0
0.189	-0.05748046875	0.0335302734375	9.838740234375	-0.14495849609375	0.152587890625	-0.05340576171875
0.197	0.011975097656250001	0.0431103515625	9.836345214843751	-0.41961669921875	-0.06866455078125	0.1373291015625
0.205	-0.01916015625	0.00239501953125	9.90340576171875	-0.30517578125	0.0762939453125	0.32806396484375
0.214	0.0047900390625	-0.03113525390625	9.814790039062501	-0.0762939453125	0.22125244140625	0.030517578125
0.222	0.0431103515625	0.009580078125	9.7573095703125	-0.12969970703125	0.091552734375	0.19073486328125
0.23	-0.009580078125	0.011975097656250001	9.853110351562501	-0.25177001953125	-0.0457763671875	0.16021728515625
0.238	-0.0383203125	0.0	9.90819580078125	-0.11444091796875	0.0457763671875	-0.0152587890625
0.246	-0.03592529296875	-0.0143701171875	9.860295410156251	-0.152587890625	-0.02288818359375	0.091552734375
0.256	-0.052690429687500005	-0.02155517578125	9.8435302734375	-0.274658203125	0.09918212890625	0.12969970703125
0.265	-0.03592529296875	0.01676513671875	9.71419921875	-0.16021728515625	0.0762939453125	0.1068115234375
0.273	-0.01676513671875	0.03113525390625	9.8483203125	-0.23651123046875	0.1220703125	0.1678466796875
0.282	-0.01676513671875	-0.011975097656250001	9.7285693359375	-0.25177001953125	-0.11444091796875	0.19073486328125
0.291	-0.06466552734375	0.10059082031250001	9.874665527343751	-0.19073486328125	0.9918212890625	0.1983642578125
0.301	-0.13172607421875002	0.023950195312500002	9.8722705078125	-0.3204345703125	-0.5645751953125	0.1068115234375
0.31	-0.076640625	0.06466552734375	9.8483203125	-0.1373291015625	-0.823974609375	-0.0152587890625
0.319	0.10777587890625001	0.03592529296875	9.781259765625	-0.18310546875	0.08392333984375	0.0152587890625
0.327	0.0718505859375	0.0718505859375	9.77407470703125	-0.28228759765625	0.57220458984375	0.0762939453125
0.336	0.050295410156250005	0.03113525390625	9.781259765625	-0.2593994140625	0.45013427734375	0.152587890625
0.345	-0.05987548828125	-0.011975097656250001	9.85071533203125	-0.2899169921875	0.31280517578125	0.06103515625
0.353	-0.04071533203125	0.026345214843750003	9.912985839843751	-0.20599365234375	0.29754638671875	0.02288818359375
0.361	-0.011975097656250001	-0.0431103515625	9.79802490234375	-0.30517578125	0.00762939453125	0.12969970703125
0.37	0.0047900390625	0.050295410156250005	9.8435302734375	-0.23651123046875	-0.20599365234375	0.091552734375
0.378	-0.047900390625000004	0.055085449218750006	9.86508544921875	-0.396728515625	-0.030517578125	0.03814697265625
0.387	-0.03592529296875	0.052690429687500005	9.78365478515625	-0.28228759765625	0.0	-0.00762939453125
0.395	-0.0047900390625	0.0431103515625	9.776469726562501	-0.1220703125	-0.2288818359375	-0.030517578125
0.404	-0.04071533203125	0.0431103515625	9.81	-0.32806396484375	-0.0457763671875	0.17547607421875
0.412	0.023950195312500002	0.026345214843750003	9.9105908203125	-0.06866455078125	-0.030517578125	0.12969970703125
0.42	0.009580078125	0.0143701171875	9.75012451171875	-0.25177001953125	-0.05340576171875	-0.12969970703125
0.429	-0.0143701171875	-0.01916015625	9.7956298828125	-0.12969970703125	0.00762939453125	0.0457763671875
0.437	0.0143701171875	-0.02155517578125	9.85071533203125	-0.17547607421875	0.06866455078125	0.12969970703125
0.445	0.00718505859375	0.055085449218750006	9.86987548828125	-0.06866455078125	-0.06103515625	0.16021728515625
0.453	0.009580078125	0.03592529296875	9.819580078125	-0.09918212890625	0.05340576171875	0.06103515625
0.461	-0.0047900390625	0.045505371093750004	9.84592529296875	-0.274658203125	0.06103515625	0.213623046875
0.47	-0.052690429687500005	0.050295410156250005	9.85550537109375	-0.335693359375	0.05340576171875	0.16021728515625
0.478	0.0	0.047900390625000004	9.733359375000001	-0.335693359375	-0.0457763671875	0.02288818359375
0.485	-0.00718505859375	0.00239501953125	9.7381494140625	-0.26702880859375	0.02288818359375	0.16021728515625
0.493	-0.05748046875	0.023950195312500002	9.7573095703125	-0.396728515625	0.38909912109375	0.03814697265625
0.501	-0.00239501953125	0.045505371093750004	9.84113525390625	-0.2593994140625	-0.03814697265625	0.091552734375
0.51	-0.01916015625	0.00239501953125	9.7573095703125	-0.30517578125	0.25177001953125	0.19073486328125
0.519	-0.06466552734375	-0.0047900390625	9.81	-0.1983642578125	0.09918212890625	0.1983642578125
0.527	0.009580078125	0.028740234375	9.7956298828125	-0.20599365234375	-0.06866455078125	0.18310546875
0.535	0.00239501953125	0.03113525390625	9.781259765625	-0.1068115234375	0.08392333984375	-0.02288818359375
0.543	0.00239501953125	0.00718505859375	9.80281494140625	-0.31280517578125	-0.0152587890625	0.14495849609375
0.551	0.055085449218750006	0.047900390625000004	9.86508544921875	-0.40435791015625	0.1068115234375	-0.08392333984375
0.561	0.03592529296875	0.03113525390625	9.800419921875001	-0.28228759765625	0.1220703125	0.1373291015625
0.569	0.023950195312500002	-0.0383203125	9.7860498046875	-0.213623046875	0.0457763671875	0.06103515625
0.577	0.023950195312500002	-0.009580078125	9.84113525390625	-0.213623046875	0.030517578125	-0.091552734375
0.585	-0.028740234375	0.00718505859375	9.71419921875	-0.19073486328125	0.152587890625	-0.0152587890625
0.593	0.067060546875	0.028740234375	9.77407470703125	-0.213623046875	0.37384033203125	0.14495849609375
0.603	-0.045505371093750004	0.0383203125	9.881850585937501	-0.11444091796875	0.274658203125	0.06866455078125
0.611	-0.06466552734375	0.04071533203125	9.89861572265625	-0.22125244140625	0.06103515625	-0.05340576171875
0.619	0.026345214843750003	-0.00718505859375	9.93693603515625	-0.18310546875	-0.43487548828125	0.00762939453125
0.628	-0.06945556640625	-0.02155517578125	9.87945556640625	-0.25177001953125	-0.29754638671875	0.1068115234375
0.637	0.023950195312500002	0.03113525390625	9.7716796875	-0.2288818359375	-0.03814697265625	0.00762939453125
0.646	0.07903564453125	-0.00718505859375	9.829160156250001	-0.1068115234375	0.06103515625	0.06866455078125
0.654	-0.0047900390625	-0.03113525390625	9.793234863281251	-0.3204345703125	0.2288818359375	0.1373291015625
0.662	-0.011975097656250001	0.07424560546875	9.85071533203125	-0.22125244140625	0.30517578125	0.05340576171875
0.671	-0.02155517578125	0.0335302734375	9.78365478515625	-0.2593994140625	0.54931640625	0.1068115234375
0.679	0.01676513671875	-0.02155517578125	9.79083984375	-0.25177001953125	0.00762939453125	0.14495849609375
0.688	-0.08861572265625	0.026345214843750003	9.819580078125	-0.2899169921875	0.02288818359375	0.08392333984375
0.696	-0.050295410156250005	0.04071533203125	9.8483203125	0.08392333984375	-0.0762939453125	0.0152587890625
0.704	0.0	0.01916015625	9.78844482421875	-0.22125244140625	0.00762939453125	0.08392333984375
0.712	0.02155517578125	0.01916015625	9.75970458984375	-0.31280517578125	-0.0152587890625	0.17547607421875
0.72	-0.05987548828125	0.03113525390625	9.94651611328125	-0.48065185546875	-0.05340576171875	0.1983642578125
0.73	-0.0143701171875	-0.028740234375	9.793234863281251	-0.0152587890625	0.03814697265625	0.213623046875
0.738	-0.01916015625	-0.00239501953125	9.8052099609375	-0.3814697265625	0.41961669921875	0.00762939453125
0.746	-0.011975097656250001	0.02155517578125	9.838740234375	-0.09918212890625	0.1678466796875	0.030517578125
0.754	-0.00718505859375	-0.028740234375	9.793234863281251	-0.20599365234375	0.0152587890625	0.00762939453125
0.762	0.011975097656250001	0.1197509765625	9.886640625	-0.335693359375	0.02288818359375	0.11444091796875
0.772	-0.03592529296875	0.01916015625	9.84592529296875	-0.1068115234375	-0.0762939453125	-0.03814697265625
0.78	-0.10777587890625001	-0.0335302734375	9.86508544921875	0.030517578125	-0.1983642578125	0.0762939453125
0.789	-0.05987548828125	0.11256591796875001	9.8243701171875	-0.3204345703125	-0.0762939453125	0.03814697265625
0.798	-0.05748046875	0.009580078125	9.79083984375	-0.0152587890625	0.0762939453125	0.16021728515625
0.806	-0.0718505859375	0.045505371093750004	9.819580078125	-0.28228759765625	0.1373291015625	0.0762939453125
0.815	0.026345214843750003	0.011975097656250001	9.92256591796875	-0.32806396484375	-0.02288818359375	0.0457763671875
0.823	0.011975097656250001	-0.00718505859375	9.9680712890625	-0.1373291015625	-0.05340576171875	0.152587890625
0.832	-0.009580078125	0.028740234375	9.807604980468751	-0.29754638671875	0.11444091796875	0.06103515625
0.84	-0.050295410156250005	0.01916015625	9.84113525390625	-0.213623046875	0.2593994140625	0.05340576171875
0.848	-0.11256591796875001	0.00718505859375	9.889035644531251	-0.31280517578125	0.20599365234375	-0.0152587890625
0.858	-0.13172607421875002	0.0622705078125	9.93214599609375	-0.2899169921875	-0.457763671875	0.12969970703125
0.867	-0.0622705078125	0.067060546875	9.78844482421875	-0.25177001953125	-0.4425048828125	0.11444091796875
0.876	0.055085449218750006	0.0143701171875	9.8243701171875	-0.42724609375	0.02288818359375	0.05340576171875
0.884	0.08861572265625	0.01676513671875	9.769284667968751	-0.22125244140625	0.2899169921875	0.0457763671875
0.892	0.009580078125	0.0047900390625	9.82676513671875	-0.38909912109375	0.43487548828125	0.1373291015625
0.9	0.00718505859375	-0.01676513671875	9.8914306640625	-0.19073486328125	0.41961669921875	0.06866455078125
0.909	-0.01676513671875	-0.0335302734375	9.85550537109375	-0.396728515625	0.19073486328125	0.05340576171875
0.917	-0.0383203125	-0.00718505859375	9.81239501953125	-0.3814697265625	0.1068115234375	0.03814697265625
0.925	-0.04071533203125	0.055085449218750006	9.821975097656251	-0.12969970703125	0.06866455078125	0.12969970703125
0.934	-0.052690429687500005	-0.03592529296875	9.90580078125	-0.1373291015625	-0.22125244140625	0.12969970703125
0.943	0.052690429687500005	0.0143701171875	9.881850585937501	-0.40435791015625	-0.0457763671875	-0.0152587890625
0.952	-0.009580078125	0.050295410156250005	9.85550537109375	-0.16021728515625	-0.12969970703125	0.091552734375
0.96	0.050295410156250005	0.0047900390625	9.7381494140625	-0.08392333984375	-0.18310546875	0.12969970703125
0.968	0.026345214843750003	-0.026345214843750003	9.877060546875	-0.06866455078125	0.17547607421875	0.06103515625
0.976	0.055085449218750006	0.0	9.704619140625	-0.2899169921875	0.213623046875	0.0
0.985	0.067060546875	0.04071533203125	9.7189892578125	-0.14495849609375	0.244140625	0.09918212890625
0.993	-0.0143701171875	0.086220703125	9.75012451171875	-0.06866455078125	0.43487548828125	-0.02288818359375
1.002	-0.086220703125	0.05748046875	9.8339501953125	-0.12969970703125	0.43487548828125	-0.02288818359375
1.01	-0.10059082031250001	0.00718505859375	9.87945556640625	-0.3509521484375	-0.26702880859375	0.06103515625
1.019	-0.03592529296875	0.055085449218750006	9.860295410156251	-0.244140625	-0.31280517578125	0.06866455078125
1.029	-0.0335302734375	0.02155517578125	9.8483203125	-0.1678466796875	-0.2288818359375	0.12969970703125
1.038	0.03113525390625	0.011975097656250001	9.7716796875	-0.3662109375	0.152587890625	0.06103515625
1.046	-0.0383203125	0.0047900390625	9.8914306640625	-0.1220703125	-0.14495849609375	0.08392333984375
1.054	-0.052690429687500005	0.050295410156250005	9.920170898437501	-0.05340576171875	0.02288818359375	0.14495849609375
1.063	-0.0431103515625	-0.00718505859375	9.8243701171875	-0.31280517578125	0.11444091796875	-0.08392333984375
1.073	0.009580078125	0.00239501953125	9.742939453125	-0.1678466796875	-0.03814697265625	-0.08392333984375
1.081	-0.05987548828125	-0.011975097656250001	9.877060546875	-0.06866455078125	-0.08392333984375	0.08392333984375
1.09	-0.009580078125	-0.0143701171875	9.93693603515625	-0.2288818359375	-0.1678466796875	0.16021728515625
1.099	-0.01676513671875	-0.028740234375	9.7956298828125	-0.1373291015625	-0.02288818359375	0.1068115234375
1.108	-0.023950195312500002	0.02155517578125	9.80281494140625	-0.19073486328125	0.0	0.12969970703125
1.118	-0.01676513671875	0.06466552734375	9.74533447265625	-0.08392333984375	0.12969970703125	0.0152587890625
1.126	-0.067060546875	0.05748046875	9.8243701171875	-0.11444091796875	0.25177001953125	0.05340576171875
1.135	0.03113525390625	0.028740234375	9.867480468750001	-0.2288818359375	-0.06866455078125	0.11444091796875
1.143	-0.026345214843750003	0.028740234375	9.86508544921875	-0.28228759765625	0.05340576171875	-0.030517578125
1.153	-0.011975097656250001	0.023950195312500002	9.85550537109375	-0.34332275390625	-0.11444091796875	0.05340576171875
1.161	-0.02155517578125	0.0047900390625	9.81718505859375	-0.08392333984375	-0.06866455078125	0.0457763671875
1.169	0.0047900390625	0.0	9.793234863281251	-0.3509521484375	0.08392333984375	0.03814697265625
1.177	0.026345214843750003	0.10777587890625001	9.877060546875	-0.28228759765625	0.06866455078125	0.0457763671875
1.185	0.01916015625	0.047900390625000004	9.762099609375001	-0.2288818359375	0.18310546875	-0.02288818359375
1.195	0.011975097656250001	-0.01916015625	9.77407470703125	-0.3662109375	0.14495849609375	0.18310546875
1.203	-0.009580078125	0.023950195312500002	9.776469726562501	-0.31280517578125	-0.03814697265625	0.1373291015625
1.212	-0.0143701171875	0.0	9.84592529296875	-0.08392333984375	0.05340576171875	0.17547607421875
1.22	-0.076640625	0.045505371093750004	9.81	-0.30517578125	-0.244140625	0.1373291015625
1.229	0.0	-0.00239501953125	9.85071533203125	-0.1068115234375	0.34332275390625	0.06103515625
1.238	-0.023950195312500002	0.050295410156250005	9.78844482421875	-0.5035400390625	-0.03814697265625	0.0
1.247	-0.023950195312500002	-0.03113525390625	9.7956298828125	-0.48828125	-0.42724609375	0.12969970703125
1.256	-0.0047900390625	-0.01676513671875	9.867480468750001	-0.32806396484375	-0.18310546875	0.14495849609375
1.265	0.09819580078125001	0.050295410156250005	9.67827392578125	-0.14495849609375	1.04522705078125	0.12969970703125
1.273	0.07424560546875	0.0335302734375	9.838740234375	-0.16021728515625	1.2054443359375	0.091552734375
1.283	-0.1293310546875	0.0	9.96328125	-0.3509521484375	0.091552734375	0.152587890625
1.292	-0.19639160156250002	0.0143701171875	9.9968115234375	-0.274658203125	-1.01470947265625	0.08392333984375
1.301	0.06466552734375	0.10298583984375001	9.7573095703125	-0.29754638671875	-0.457763671875	0.09918212890625
1.311	0.13651611328125002	0.01676513671875	9.7956298828125	-0.16021728515625	0.92315673828125	0.22125244140625
1.319	-0.011975097656250001	0.009580078125	9.78365478515625	-0.25177001953125	0.5950927734375	-0.00762939453125
1.329	-0.1676513671875	0.023950195312500002	9.9393310546875	-0.3204345703125	0.02288818359375	0.2288818359375
1.338	-0.18202148437500001	0.04071533203125	9.948911132812501	-0.152587890625	-0.75531005859375	0.09918212890625
1.347	-0.028740234375	0.03113525390625	9.857900390625	-0.35858154296875	-0.31280517578125	0.12969970703125
1.356	0.06945556640625	0.028740234375	9.7381494140625	-0.1983642578125	0.41961669921875	0.1373291015625
1.364	-0.011975097656250001	0.06945556640625	9.7573095703125	0.0152587890625	0.67138671875	0.03814697265625
1.373	-0.06466552734375	0.0718505859375	9.886640625	-0.1373291015625	0.41961669921875	0.274658203125
1.383	-0.08382568359375	-0.0143701171875	9.75970458984375	-0.244140625	-0.06103515625	0.17547607421875
1.392	-0.052690429687500005	-0.011975097656250001	9.836345214843751	-0.14495849609375	0.00762939453125	0.34332275390625
1.401	-0.086220703125	-0.01676513671875	9.9297509765625	-0.20599365234375	-0.22125244140625	0.12969970703125
1.411	0.028740234375	-0.011975097656250001	9.8483203125	-0.35858154296875	0.19073486328125	0.03814697265625
1.419	-0.0047900390625	0.009580078125	9.90340576171875	-0.31280517578125	0.0457763671875	0.08392333984375
1.427	0.047900390625000004	0.028740234375	9.920170898437501	-0.3204345703125	-0.05340576171875	0.16021728515625
1.436	0.01676513671875	-0.05987548828125	9.84592529296875	-0.335693359375	0.14495849609375	0.17547607421875
1.444	0.045505371093750004	0.0335302734375	9.78844482421875	-0.31280517578125	0.06866455078125	0.274658203125
1.454	0.02155517578125	0.023950195312500002	9.7668896484375	-0.4730224609375	0.11444091796875	0.2593994140625
1.462	-0.055085449218750006	-0.02155517578125	9.769284667968751	-0.30517578125	0.28228759765625	0.16021728515625
1.471	-0.13172607421875002	0.045505371093750004	9.83155517578125	-0.06866455078125	-0.152587890625	0.0762939453125
1.48	-0.08861572265625	0.0383203125	9.86508544921875	-0.48828125	-0.1068115234375	0.06103515625
1.489	0.009580078125	0.0143701171875	9.8243701171875	-0.19073486328125	-0.091552734375	0.17547607421875
1.498	0.0047900390625	-0.0047900390625	9.8243701171875	-0.46539306640625	-0.06866455078125	0.0457763671875
1.506	-0.0335302734375	0.0431103515625	9.829160156250001	-0.0152587890625	0.0762939453125	-0.00762939453125
1.514	-0.0047900390625	0.01676513671875	9.807604980468751	-0.1678466796875	0.335693359375	0.14495849609375
1.523	0.023950195312500002	0.0143701171875	9.821975097656251	-0.08392333984375	0.1220703125	0.0
1.531	-0.03592529296875	0.0622705078125	9.72138427734375	-0.2593994140625	0.42724609375	0.06866455078125
1.541	-0.055085449218750006	0.07424560546875	9.81718505859375	-0.18310546875	0.1373291015625	-0.0457763671875
1.549	-0.04071533203125	0.00239501953125	9.86987548828125	-0.1983642578125	-0.335693359375	0.16021728515625
1.558	-0.05987548828125	0.023950195312500002	9.84113525390625	-0.28228759765625	-0.60272216796875	0.11444091796875
1.567	-0.067060546875	0.047900390625000004	9.867480468750001	-0.2593994140625	-0.23651123046875	0.0762939453125
1.576	0.07903564453125	0.028740234375	9.874665527343751	-0.42724609375	0.49591064453125	0.1220703125
1.586	-0.0335302734375	0.023950195312500002	9.742939453125	-0.1220703125	0.40435791015625	0.091552734375
1.595	-0.086220703125	-0.011975097656250001	9.829160156250001	-0.42724609375	0.16021728515625	0.02288818359375
1.604	-0.00718505859375	0.0814306640625	9.8914306640625	-0.30517578125	-0.030517578125	0.16021728515625
1.612	-0.00718505859375	0.0431103515625	9.75970458984375	-0.22125244140625	-0.16021728515625	0.0152587890625
1.622	0.01676513671875	0.0047900390625	9.76449462890625	-0.19073486328125	-0.030517578125	0.1373291015625
1.63	0.01676513671875	0.03592529296875	9.78365478515625	-0.5035400390625	0.06866455078125	0.1373291015625
1.638	0.023950195312500002	0.05748046875	9.8243701171875	-0.31280517578125	0.17547607421875	0.18310546875
1.647	0.01676513671875	0.028740234375	9.9105908203125	-0.12969970703125	-0.06866455078125	0.11444091796875
1.655	-0.0047900390625	-0.00718505859375	9.72138427734375	-0.3814697265625	0.0152587890625	-0.05340576171875
1.664	-0.07424560546875	0.07424560546875	9.86987548828125	-0.0152587890625	0.00762939453125	0.0762939453125
1.673	-0.0383203125	0.0	9.8483203125	-0.32806396484375	0.16021728515625	0.0457763671875
1.681	-0.03113525390625	-0.04071533203125	9.86987548828125	-0.16021728515625	-0.09918212890625	0.08392333984375
1.69	0.011975097656250001	0.01676513671875	9.81	0.0457763671875	0.00762939453125	0.0
1.698	0.03113525390625	-0.00718505859375	9.7381494140625	-0.20599365234375	0.78582763671875	0.09918212890625
1.708	0.026345214843750003	-0.03592529296875	9.819580078125	-0.213623046875	1.1444091796875	-0.03814697265625
1.717	-0.18920654296875	0.01676513671875	9.953701171875	-0.20599365234375	0.48828125	0.03814697265625
1.725	-0.20357666015625	0.047900390625000004	9.97046630859375	-0.35858154296875	-1.312255859375	0.1373291015625
1.735	-0.026345214843750003	0.050295410156250005	9.89861572265625	-0.17547607421875	-0.8087158203125	0.06103515625
1.743	0.07424560546875	-0.0335302734375	9.8243701171875	-0.1373291015625	0.69427490234375	0.030517578125
1.753	0.08861572265625	0.0383203125	9.8243701171875	-0.38909912109375	0.885009765625	0.0457763671875
1.762	0.01676513671875	0.03592529296875	9.84113525390625	-0.41961669921875	0.57220458984375	0.152587890625
1.77	-0.11256591796875001	-0.05748046875	9.948911132812501	-0.22125244140625	0.0152587890625	0.08392333984375
1.779	-0.05987548828125	0.00718505859375	9.860295410156251	-0.35858154296875	-0.61798095703125	0.19073486328125
1.788	-0.01676513671875	0.0383203125	9.7716796875	-0.20599365234375	-0.5340576171875	0.06866455078125
1.798	0.086220703125	0.01676513671875	9.7956298828125	-0.37384033203125	-0.0762939453125	0.05340576171875
1.806	-0.02155517578125	-0.01676513671875	9.7860498046875	-0.20599365234375	0.2288818359375	0.17547607421875
1.815	-0.0431103515625	0.02155517578125	9.81718505859375	-0.30517578125	-0.45013427734375	0.030517578125
1.824	-0.026345214843750003	0.0	9.82676513671875	-0.0152587890625	-0.396728515625	0.12969970703125
1.832	0.00239501953125	0.055085449218750006	9.84592529296875	-0.274658203125	-0.11444091796875	0.030517578125
1.841	-0.026345214843750003	-0.023950195312500002	9.754914550781251	-0.42724609375	-0.03814697265625	0.12969970703125
1.85	0.09819580078125001	0.055085449218750006	9.7285693359375	-0.3509521484375	0.17547607421875	0.20599365234375
1.859	-0.01916015625	0.0431103515625	9.90580078125	-0.6256103515625	0.23651123046875	-0.0762939453125
1.868	-0.07424560546875	0.028740234375	9.93693603515625	-0.1220703125	-0.3509521484375	0.18310546875
1.878	-0.023950195312500002	0.02155517578125	9.81239501953125	-0.38909912109375	-0.5340576171875	0.11444091796875
1.887	0.03113525390625	-0.00718505859375	9.93214599609375	-0.51116943359375	-0.06866455078125	0.1220703125
1.895	-0.03592529296875	-0.02155517578125	9.75012451171875	-0.45013427734375	-0.32806396484375	0.05340576171875
1.904	-0.0718505859375	0.009580078125	9.89861572265625	-0.29754638671875	-0.4119873046875	0.06103515625
1.913	-0.00239501953125	0.0	9.896220703125001	-0.3204345703125	-0.5645751953125	-0.02288818359375
1.923	0.0143701171875	0.05748046875	9.8435302734375	-0.457763671875	-0.1678466796875	0.06103515625
1.931	-0.01916015625	-0.00239501953125	9.7573095703125	-0.41961669921875	-0.091552734375	0.1068115234375
1.94	0.00718505859375	0.00718505859375	9.78844482421875	-0.0762939453125	0.274658203125	0.14495849609375
1.948	0.00239501953125	-0.011975097656250001	9.8435302734375	0.19073486328125	0.69427490234375	0.09918212890625
1.956	-0.11256591796875001	0.0718505859375	9.9010107421875	0.0762939453125	1.02996826171875	-0.0152587890625
1.967	-0.03592529296875	0.0	9.8626904296875	-0.14495849609375	0.7781982421875	0.30517578125
1.975	-0.10777587890625001	-0.028740234375	9.912985839843751	-0.00762939453125	0.06103515625	0.02288818359375
1.984	-0.0383203125	0.06466552734375	9.9105908203125	-0.23651123046875	-0.22125244140625	0.34332275390625
1.993	0.0	-0.0335302734375	9.896220703125001	-0.213623046875	-0.26702880859375	0.0
2.001	-0.08861572265625	-0.0143701171875	9.7956298828125	-0.37384033203125	-0.5340576171875	-0.030517578125
2.011	0.0143701171875	0.028740234375	9.76449462890625	-0.28228759765625	0.1983642578125	0.1068115234375
2.02	-0.0143701171875	0.052690429687500005	9.8243701171875	-0.23651123046875	0.16021728515625	0.091552734375
2.029	-0.067060546875	0.0335302734375	9.819580078125	-0.2288818359375	-0.19073486328125	-0.00762939453125
2.038	0.011975097656250001	0.00718505859375	9.8435302734375	-0.3509521484375	-0.38909912109375	0.08392333984375
2.046	-0.026345214843750003	0.0	9.75970458984375	-0.37384033203125	-0.05340576171875	0.08392333984375
2.056	0.011975097656250001	-0.00718505859375	9.77886474609375	-0.28228759765625	0.579833984375	0.06866455078125
2.064	0.03592529296875	0.045505371093750004	9.83155517578125	-0.38909912109375	0.55694580078125	0.0152587890625
2.072	-0.03113525390625	0.0143701171875	9.74533447265625	-0.52642822265625	0.3662109375	-0.0457763671875
2.081	0.023950195312500002	0.0431103515625	9.93693603515625	-0.1220703125	0.25177001953125	0.14495849609375
2.089	-0.047900390625000004	0.0	9.75012451171875	-0.0457763671875	0.244140625	-0.06103515625
2.098	-0.0814306640625	0.0383203125	9.857900390625	-0.30517578125	0.1373291015625	0.030517578125
2.107	-0.09101074218750001	-0.00239501953125	9.94412109375	-0.32806396484375	-0.14495849609375	0.0457763671875
2.116	0.01916015625	0.067060546875	9.7668896484375	-0.06103515625	0.1220703125	0.08392333984375
2.124	0.0047900390625	-0.03113525390625	9.836345214843751	0.030517578125	0.22125244140625	-0.0152587890625
2.132	0.026345214843750003	0.047900390625000004	9.84113525390625	-0.1983642578125	0.1983642578125	-0.12969970703125
2.142	-0.00718505859375	0.01916015625	9.867480468750001	-0.1068115234375	0.396728515625	0.20599365234375
2.15	-0.03113525390625	0.03113525390625	9.8914306640625	-0.28228759765625	0.00762939453125	0.1068115234375
2.159	-0.026345214843750003	0.00718505859375	9.78365478515625	-0.2899169921875	-0.18310546875	0.16021728515625
2.168	-0.023950195312500002	0.02155517578125	9.800419921875001	-0.0762939453125	-0.18310546875	0.1983642578125
2.177	-0.050295410156250005	0.0335302734375	9.76449462890625	-0.1220703125	0.091552734375	-0.06866455078125
2.186	-0.0047900390625	0.03113525390625	9.874665527343751	-0.4119873046875	0.3662109375	0.19073486328125
2.195	-0.07903564453125	0.052690429687500005	9.836345214843751	-0.32806396484375	-0.09918212890625	0.152587890625
2.204	-0.0383203125	0.0143701171875	9.754914550781251	-0.37384033203125	-0.06866455078125	0.16021728515625
2.212	-0.023950195312500002	0.02155517578125	9.69743408203125	0.0762939453125	0.1220703125	-0.030517578125
2.222	0.0143701171875	0.0143701171875	9.83155517578125	-0.335693359375	0.213623046875	0.0762939453125
2.23	-0.0335302734375	0.06466552734375	9.8052099609375	-0.335693359375	0.335693359375	0.06866455078125
2.239	-0.009580078125	0.052690429687500005	9.9010107421875	-0.29754638671875	0.1983642578125	0.09918212890625
2.247	-0.07903564453125	0.04071533203125	9.89382568359375	-0.17547607421875	-0.1678466796875	0.02288818359375
2.256	-0.03592529296875	0.0383203125	9.853110351562501	-0.58746337890625	-0.1373291015625	0.06866455078125
2.266	-0.00718505859375	-0.00239501953125	9.84113525390625	-0.3662109375	-0.152587890625	0.12969970703125
2.275	0.0047900390625	0.011975097656250001	9.87945556640625	-0.40435791015625	-0.11444091796875	-0.030517578125
2.283	-0.02155517578125	0.028740234375	9.7716796875	-0.48065185546875	-0.09918212890625	0.030517578125
2.292	-0.0383203125	0.00718505859375	9.838740234375	-0.11444091796875	-0.02288818359375	0.03814697265625
2.3	-0.0383203125	0.06466552734375	9.881850585937501	-0.40435791015625	0.0762939453125	0.06103515625
2.31	-0.047900390625000004	0.0431103515625	9.896220703125001	-0.31280517578125	-0.030517578125	0.1220703125
2.318	-0.09580078125000001	0.052690429687500005	9.9010107421875	-0.14495849609375	-0.457763671875	0.25177001953125
2.327	-0.0383203125	0.050295410156250005	9.73575439453125	-0.2899169921875	0.00762939453125	-0.030517578125
2.336	-0.09580078125000001	-0.00239501953125	9.96328125	-0.38909912109375	0.213623046875	0.0152587890625
2.345	-0.15328125	0.050295410156250005	9.84592529296875	-0.26702880859375	-0.98419189453125	-0.11444091796875
2.355	0.076640625	0.0	9.793234863281251	-0.335693359375	-0.0762939453125	0.05340576171875
2.363	0.050295410156250005	0.03592529296875	9.7860498046875	-0.32806396484375	0.40435791015625	-0.09918212890625
2.372	0.08382568359375	0.00239501953125	9.836345214843751	-0.244140625	0.48828125	0.030517578125
2.38	-0.00718505859375	-0.0143701171875	9.742939453125	0.14495849609375	0.3662109375	0.0152587890625
2.39	0.011975097656250001	0.04071533203125	9.90340576171875	-0.41961669921875	-0.03814697265625	0.20599365234375
2.398	-0.067060546875	0.00239501953125	9.84113525390625	-0.40435791015625	-0.25177001953125	0.11444091796875
2.407	-0.05748046875	0.0335302734375	9.912985839843751	-0.396728515625	-0.54168701171875	0.091552734375
2.416	-0.055085449218750006	0.028740234375	9.857900390625	-0.335693359375	-0.518798828125	0.14495849609375
2.425	0.02155517578125	0.01916015625	9.78844482421875	-0.2593994140625	-0.69427490234375	0.213623046875
2.434	0.01916015625	-0.00239501953125	9.7956298828125	-0.51116943359375	-0.11444091796875	0.244140625
2.443	-0.026345214843750003	0.05987548828125	9.77886474609375	-0.20599365234375	0.14495849609375	0.00762939453125
2.452	-0.01676513671875	-0.050295410156250005	9.853110351562501	-0.16021728515625	0.37384033203125	-0.0457763671875
2.46	-0.02155517578125	0.0	9.896220703125001	-0.244140625	-0.06103515625	0.11444091796875
2.469	-0.0143701171875	0.01676513671875	9.77886474609375	-0.11444091796875	-0.16021728515625	0.16021728515625
2.479	-0.04071533203125	0.01916015625	9.793234863281251	-0.38909912109375	-0.091552734375	-0.06866455078125
2.488	-0.04071533203125	0.02155517578125	9.860295410156251	-0.28228759765625	0.00762939453125	0.152587890625
2.496	-0.055085449218750006	-0.04071533203125	9.90340576171875	-0.2899169921875	-0.18310546875	0.14495849609375
2.505	-0.045505371093750004	0.0718505859375	9.69264404296875	0.02288818359375	-0.43487548828125	0.05340576171875
2.514	0.16046630859375	0.0718505859375	9.79083984375	-0.396728515625	0.42724609375	0.11444091796875
2.523	-0.052690429687500005	0.023950195312500002	9.874665527343751	-0.26702880859375	0.31280517578125	0.20599365234375
2.532	-0.00718505859375	0.0431103515625	9.874665527343751	-0.1678466796875	0.0762939453125	0.00762939453125
2.541	-0.086220703125	0.08382568359375	9.956096191406251	-0.11444091796875	-0.152587890625	0.213623046875
2.55	0.00718505859375	0.05748046875	9.79802490234375	-0.457763671875	-0.67901611328125	0.00762939453125
2.558	-0.01916015625	0.03592529296875	9.78365478515625	-0.29754638671875	0.0152587890625	0.22125244140625
2.568	-0.0143701171875	0.01676513671875	9.79802490234375	-0.396728515625	0.1068115234375	-0.05340576171875
2.576	-0.01916015625	0.00718505859375	9.836345214843751	-0.12969970703125	0.11444091796875	-0.05340576171875
2.585	0.00239501953125	-0.026345214843750003	9.7956298828125	-0.274658203125	0.0762939453125	0.11444091796875
2.593	-0.047900390625000004	0.0	9.853110351562501	-0.06103515625	0.08392333984375	0.152587890625
2.601	-0.047900390625000004	0.02155517578125	9.860295410156251	-0.46539306640625	-0.1220703125	0.06103515625
2.611	-0.0622705078125	0.045505371093750004	9.80281494140625	-0.4730224609375	-0.0762939453125	0.08392333984375
2.62	-0.01676513671875	0.0335302734375	9.877060546875	-0.274658203125	-0.274658203125	0.06866455078125
2.629	0.01916015625	0.08382568359375	9.886640625	-0.32806396484375	-0.22125244140625	0.12969970703125
2.638	-0.011975097656250001	-0.023950195312500002	9.78844482421875	-0.35858154296875	0.2899169921875	-0.0457763671875
2.647	0.03113525390625	0.045505371093750004	9.781259765625	-0.2288818359375	0.335693359375	-0.0152587890625
2.656	-0.050295410156250005	0.009580078125	9.88424560546875	-0.3204345703125	0.12969970703125	0.1220703125
2.665	-0.050295410156250005	-0.01916015625	9.857900390625	-0.25177001953125	-0.1220703125	0.11444091796875
2.674	-0.04071533203125	-0.009580078125	9.889035644531251	-0.4425048828125	-0.23651123046875	0.1373291015625
2.683	-0.028740234375	0.009580078125	9.89382568359375	-0.5035400390625	0.14495849609375	0.05340576171875
2.692	0.023950195312500002	0.052690429687500005	9.776469726562501	-0.3814697265625	0.00762939453125	-0.05340576171875
2.7	-0.06466552734375	-0.0047900390625	9.781259765625	-0.3204345703125	-0.38909912109375	0.17547607421875
2.71	-0.026345214843750003	0.07424560546875	9.781259765625	-0.22125244140625	-0.32806396484375	0.1983642578125
2.719	0.050295410156250005	0.01676513671875	9.85550537109375	-0.16021728515625	-0.14495849609375	0.26702880859375
2.727	0.028740234375	0.0143701171875	9.8339501953125	-0.4425048828125	-0.32806396484375	-0.030517578125
2.737	-0.055085449218750006	0.00718505859375	9.874665527343751	-0.19073486328125	-0.2899169921875	0.091552734375
2.746	-0.047900390625000004	-0.0143701171875	9.81	-0.51116943359375	-0.35858154296875	-0.05340576171875
2.755	-0.06466552734375	0.01916015625	9.77886474609375	-0.25177001953125	-0.3204345703125	0.03814697265625
2.764	0.011975097656250001	0.067060546875	9.838740234375	-0.45013427734375	-0.1220703125	0.12969970703125
2.774	0.023950195312500002	0.0143701171875	9.793234863281251	-0.5340576171875	-0.34332275390625	0.06103515625
2.782	-0.03113525390625	0.01676513671875	9.920170898437501	-0.30517578125	-0.213623046875	0.1678466796875
2.791	0.028740234375	0.0143701171875	9.829160156250001	-0.18310546875	-0.23651123046875	0.0457763671875
2.799	0.028740234375	0.047900390625000004	9.83155517578125	-0.34332275390625	0.25177001953125	0.00762939453125
2.807	0.0431103515625	0.07903564453125	9.7716796875	-0.38909912109375	0.4425048828125	0.11444091796875
2.817	0.01916015625	0.026345214843750003	9.77886474609375	-0.48828125	0.54168701171875	0.091552734375
2.825	-0.052690429687500005	0.00718505859375	9.733359375000001	-0.48828125	0.11444091796875	0.20599365234375
2.834	-0.03592529296875	-0.011975097656250001	9.8626904296875	-0.41961669921875	-0.244140625	0.2899169921875
2.843	-0.0383203125	0.009580078125	9.95130615234375	-0.40435791015625	-0.3204345703125	-0.02288818359375
2.852	0.0335302734375	-0.009580078125	9.860295410156251	-0.1983642578125	-0.38909912109375	0.06866455078125
2.862	0.02155517578125	-0.0047900390625	9.81	-0.2593994140625	-0.19073486328125	-0.06866455078125
2.87	0.086220703125	0.045505371093750004	9.65911376953125	-0.091552734375	0.6561279296875	0.12969970703125
2.879	-0.01916015625	0.0718505859375	9.84592529296875	-0.0152587890625	0.72479248046875	0.02288818359375
2.887	-0.055085449218750006	0.050295410156250005	9.85071533203125	-0.09918212890625	0.55694580078125	0.05340576171875
2.896	-0.03592529296875	-0.0143701171875	9.886640625	-0.1678466796875	0.244140625	-0.08392333984375
2.906	-0.06466552734375	0.00239501953125	9.84113525390625	-0.19073486328125	-0.274658203125	0.0762939453125
2.915	0.0047900390625	0.0	9.83155517578125	-0.26702880859375	-0.37384033203125	0.03814697265625
2.923	0.023950195312500002	0.023950195312500002	9.7956298828125	-0.06103515625	0.25177001953125	-0.00762939453125
2.931	0.050295410156250005	0.026345214843750003	9.838740234375	-0.1983642578125	0.00762939453125	0.06866455078125
2.939	-0.00239501953125	0.0143701171875	9.79083984375	-0.3509521484375	0.41961669921875	0.05340576171875
2.948	-0.0047900390625	0.0335302734375	9.7381494140625	-0.29754638671875	0.66375732421875	0.1678466796875
2.956	-0.052690429687500005	0.0143701171875	9.7956298828125	-0.18310546875	0.457763671875	0.16021728515625
2.965	-0.076640625	-0.052690429687500005	9.90580078125	0.0	0.2288818359375	-0.06866455078125
2.973	-0.0431103515625	0.05748046875	9.84113525390625	0.152587890625	0.12969970703125	0.06866455078125
2.981	0.0	-0.00718505859375	9.821975097656251	-0.00762939453125	-0.0152587890625	0.12969970703125
2.991	-0.02155517578125	0.052690429687500005	9.84592529296875	-0.22125244140625	0.0457763671875	-0.030517578125
2.999	-0.12214599609375	0.02155517578125	9.7956298828125	-0.4119873046875	-0.37384033203125	0.1220703125
3.008	0.0143701171875	-0.0047900390625	9.78365478515625	0.02288818359375	-0.823974609375	0.19073486328125
3.017	-0.01676513671875	0.0622705078125	9.838740234375	-0.32806396484375	-0.6561279296875	0.12969970703125
3.026	0.00239501953125	0.01676513671875	9.769284667968751	-0.38909912109375	-0.5645751953125	0.030517578125
3.035	0.00718505859375	0.0335302734375	9.84113525390625	-0.43487548828125	-0.41961669921875	0.08392333984375
3.044	0.162861328125	0.023950195312500002	9.65911376953125	-0.274658203125	-0.18310546875	0.213623046875
3.052	0.0143701171875	0.05748046875	9.81718505859375	-0.457763671875	0.396728515625	0.26702880859375
3.061	0.009580078125	0.067060546875	9.807604980468751	-0.20599365234375	0.823974609375	0.1373291015625
3.07	-0.27542724609375	0.047900390625000004	9.97046630859375	-0.26702880859375	-0.0762939453125	0.08392333984375
3.08	-0.28740234375	0.0431103515625	9.98483642578125	-0.3204345703125	-2.23541259765625	0.20599365234375
3.089	-0.00239501953125	-0.07903564453125	9.72617431640625	-0.32806396484375	-0.06866455078125	0.08392333984375
3.098	-0.239501953125	0.02155517578125	9.87945556640625	-0.29754638671875	-0.52642822265625	0.14495849609375
3.107	-0.0143701171875	0.01676513671875	9.88424560546875	-0.06103515625	-0.90789794921875	0.1068115234375
3.117	0.20357666015625	-0.023950195312500002	9.76449462890625	-0.0457763671875	0.3509521484375	0.1220703125
3.126	0.08861572265625	0.0	9.807604980468751	-0.05340576171875	1.21307373046875	0.1373291015625
3.134	-0.00718505859375	0.0143701171875	9.77886474609375	-0.49591064453125	1.74713134765625	-0.1068115234375
3.144	-0.31374755859375003	-0.0143701171875	10.04231689453125	-0.20599365234375	-1.0833740234375	0.06103515625
3.153	0.03592529296875	-0.023950195312500002	9.7860498046875	-0.1220703125	-1.4801025390625	0.091552734375
3.163	0.20118164062500002	-0.026345214843750003	9.70701416015625	-0.732421875	0.08392333984375	0.06866455078125
3.171	0.143701171875	-0.055085449218750006	9.70701416015625	-0.18310546875	0.579833984375	-0.00762939453125
3.18	-0.011975097656250001	-0.009580078125	9.81718505859375	-0.20599365234375	0.54931640625	0.0152587890625
3.189	-0.0622705078125	0.023950195312500002	9.8626904296875	-0.244140625	-0.2593994140625	0.152587890625
3.2	-0.17244140625	-0.01916015625	10.07105712890625	-0.35858154296875	-1.0528564453125	0.244140625
3.209	0.00718505859375	0.009580078125	9.877060546875	-0.35858154296875	-0.63323974609375	0.0457763671875
3.217	0.12214599609375	-0.009580078125	9.77407470703125	-0.23651123046875	-0.03814697265625	-0.03814697265625
3.226	0.045505371093750004	0.01916015625	9.84592529296875	-0.3814697265625	0.4119873046875	0.1220703125
3.235	-0.26584716796875	-0.0143701171875	10.001601562500001	-0.6561279296875	-3.2501220703125	0.11444091796875
3.245	0.1484912109375	0.0143701171875	9.742939453125	-0.64849853515625	-1.45721435546875	0.06103515625
3.254	0.19878662109375	0.03113525390625	9.74533447265625	-0.70953369140625	-0.335693359375	-0.0152587890625
3.263	0.18681152343750002	0.0	9.72138427734375	-0.6561279296875	0.16021728515625	-0.1068115234375
3.271	-0.0431103515625	0.02155517578125	9.84113525390625	-0.48065185546875	0.640869140625	0.00762939453125
3.28	-0.239501953125	0.0335302734375	10.01836669921875	-0.2288818359375	-0.091552734375	0.030517578125
3.29	-0.23710693359375	0.050295410156250005	9.94651611328125	-0.3204345703125	-2.05230712890625	0.03814697265625
3.299	0.17483642578125	0.023950195312500002	9.6998291015625	-0.51116943359375	-0.81634521484375	-0.00762939453125
3.308	0.11017089843750001	-0.009580078125	9.742939453125	-0.213623046875	1.09100341796875	-0.030517578125
3.317	-0.1676513671875	0.050295410156250005	9.7860498046875	-0.213623046875	1.52587890625	-0.4119873046875
3.328	-0.04071533203125	0.53887939453125	9.40524169921875	-0.6866455078125	-0.3814697265625	-12.87078857421875
3.338	0.11017089843750001	-0.22513183593750002	9.93693603515625	-0.4119873046875	5.68389892578125	-6.6375732421875
3.348	0.34248779296875004	0.0383203125	9.742939453125	-0.518798828125	-0.946044921875	-7.85064697265625
3.358	-0.09580078125000001	-0.1580712890625	10.332114257812501	-0.42724609375	2.1820068359375	-4.913330078125
3.368	1.5184423828125	-0.07424560546875	8.7705615234375	-0.43487548828125	3.875732421875	-7.40814208984375
3.38	-0.29458740234375	-0.19878662109375	10.8494384765625	-0.4425048828125	2.044677734375	-4.69207763671875
3.389	1.389111328125	-0.03592529296875	9.1441845703125	-0.31280517578125	0.74005126953125	-0.2288818359375
3.398	0.30177246093750004	0.028740234375	9.635163574218751	-0.6256103515625	7.68280029296875	0.20599365234375
3.408	-0.69216064453125	0.01916015625	10.28900390625	-0.29754638671875	2.227783203125	0.09918212890625
3.418	-1.00351318359375	0.0622705078125	10.3704345703125	-0.43487548828125	-6.88934326171875	0.091552734375
3.429	-1.64537841796875	0.41912841796875	9.680668945312501	-0.4119873046875	4.06646728515625	-6.67572021484375
3.439	-1.80823974609375	-0.045505371093750004	11.34520751953125	-0.41961669921875	-6.73675537109375	-10.0250244140625
3.449	2.21539306640625	-0.09340576171875001	8.6747607421875	-0.43487548828125	6.72149658203125	-7.4310302734375
3.46	-0.27303222656250004	0.03592529296875	10.35845947265625	-0.35858154296875	-1.04522705078125	-1.6632080078125
3.47	-0.39278320312500004	-0.0047900390625	10.09500732421875	-0.1220703125	-6.32476806640625	0.1373291015625
3.479	0.91250244140625	0.04071533203125	9.1729248046875	-0.25177001953125	2.99835205078125	0.2288818359375
3.488	0.536484375	-0.009580078125	9.4124267578125	-0.18310546875	6.7138671875	0.06103515625
3.497	-0.21555175781250002	0.052690429687500005	9.9584912109375	-0.28228759765625	2.25830078125	-0.02288818359375
3.507	-0.55803955078125	-0.01676513671875	10.2650537109375	-0.0152587890625	-4.38690185546875	0.06866455078125
3.516	-0.00239501953125	-0.023950195312500002	9.84113525390625	-0.1220703125	-4.78363037109375	0.03814697265625
3.525	0.5316943359375	-0.02155517578125	9.40524169921875	-0.244140625	0.08392333984375	0.14495849609375
3.534	0.54366943359375	-0.03113525390625	9.462722167968751	-0.12969970703125	3.71551513671875	-0.06866455078125
3.544	-0.27063720703125	0.0047900390625	9.96328125	-0.396728515625	2.5787353515625	0.18310546875
3.553	-0.48139892578125004	0.02155517578125	10.1979931640625	-0.23651123046875	-1.129150390625	0.17547607421875
3.563	-0.1293310546875	0.011975097656250001	9.83155517578125	-0.23651123046875	-3.15093994140625	0.091552734375
3.572	0.49337402343750003	-0.055085449218750006	9.4794873046875	-0.3509521484375	0.7171630859375	0.1678466796875
3.581	0.45265869140625004	-0.0143701171875	9.522597656250001	-0.03814697265625	3.48663330078125	0.12969970703125
3.591	0.1484912109375	0.03592529296875	9.77407470703125	-0.2593994140625	3.41796875	0.08392333984375
3.599	-0.29458740234375	0.0047900390625	10.03752685546875	-0.18310546875	0.1983642578125	0.152587890625
3.608	-0.33290771484375004	-0.00718505859375	10.114167480468751	-0.1373291015625	-1.60980224609375	0.06866455078125
3.618	-0.07424560546875	-0.02155517578125	9.867480468750001	-0.091552734375	-1.35040283203125	0.152587890625
3.628	0.30895751953125	0.050295410156250005	9.608818359375	0.0	1.9989013671875	-0.06103515625
3.636	0.047900390625000004	0.00239501953125	9.821975097656251	-0.16021728515625	2.1514892578125	0.22125244140625
3.645	0.045505371093750004	0.0	9.723779296875	-0.25177001953125	1.4190673828125	0.091552734375
3.653	-0.23231689453125	0.009580078125	9.9776513671875	-0.32806396484375	0.40435791015625	0.11444091796875
3.662	-0.18920654296875	0.00718505859375	9.941726074218751	-0.37384033203125	-1.48773193359375	0.0457763671875
3.672	-0.02155517578125	0.052690429687500005	9.94651611328125	-0.42724609375	-1.27410888671875	0.1373291015625
3.681	0.23231689453125	-0.0047900390625	9.613608398437501	-0.28228759765625	0.64849853515625	0.25177001953125
3.69	0.13172607421875002	-0.03113525390625	9.829160156250001	-0.28228759765625	1.4190673828125	0.16021728515625
3.699	-0.10777587890625001	-0.011975097656250001	9.98483642578125	-0.2899169921875	0.87738037109375	0.05340576171875
3.708	-0.22513183593750002	0.0383203125	9.90340576171875	-0.26702880859375	-0.48828125	0.091552734375
3.718	0.023950195312500002	0.023950195312500002	9.85071533203125	-0.2288818359375	-0.885009765625	0.12969970703125
3.727	0.16525634765625	0.086220703125	9.680668945312501	-0.1983642578125	0.43487548828125	0.0762939453125
3.736	0.09580078125000001	-0.03113525390625	9.78844482421875	-0.23651123046875	1.13677978515625	0.05340576171875
3.745	0.01676513671875	0.00718505859375	9.814790039062501	-0.29754638671875	0.87738037109375	0.11444091796875
3.755	-0.143701171875	0.011975097656250001	9.829160156250001	-0.1068115234375	0.14495849609375	0.02288818359375
3.763	-0.10059082031250001	0.028740234375	9.88424560546875	-0.2899169921875	-0.55694580078125	0.03814697265625
3.773	-0.07424560546875	-0.01676513671875	9.93693603515625	-0.29754638671875	-0.885009765625	-0.03814697265625
3.782	0.12214599609375	-0.011975097656250001	9.7956298828125	-0.28228759765625	0.0152587890625	0.0457763671875
3.79	0.15088623046875002	0.01916015625	9.857900390625	-0.20599365234375	0.67138671875	0.12969970703125
3.8	-0.023950195312500002	0.00239501953125	9.7860498046875	-0.213623046875	0.6256103515625	0.091552734375
3.808	-0.0718505859375	0.05748046875	9.860295410156251	-0.091552734375	0.30517578125	0.05340576171875
3.817	-0.0814306640625	0.011975097656250001	10.03752685546875	0.00762939453125	-0.1678466796875	0.030517578125
3.826	-0.028740234375	-0.009580078125	9.867480468750001	-0.244140625	-0.30517578125	-0.1220703125
3.835	0.0047900390625	0.0335302734375	9.819580078125	-0.17547607421875	-0.19073486328125	0.02288818359375
3.844	0.050295410156250005	0.05987548828125	9.733359375000001	-0.08392333984375	0.091552734375	0.12969970703125
3.852	0.07903564453125	0.050295410156250005	9.793234863281251	-0.35858154296875	0.244140625	-0.091552734375
3.861	0.023950195312500002	-0.026345214843750003	9.920170898437501	-0.1678466796875	0.29754638671875	0.0152587890625
3.87	-0.01676513671875	0.0143701171875	9.89382568359375	-0.2288818359375	0.00762939453125	0.11444091796875
3.878	-0.0335302734375	0.01916015625	9.98244140625	-0.22125244140625	-0.213623046875	0.12969970703125
3.888	-0.026345214843750003	0.011975097656250001	9.8626904296875	-0.213623046875	-0.42724609375	0.152587890625
3.897	0.0047900390625	0.0047900390625	9.7716796875	-0.52642822265625	-0.4425048828125	0.1678466796875
3.905	0.02155517578125	0.0383203125	9.723779296875	-0.244140625	-0.152587890625	0.05340576171875
3.913	0.08861572265625	0.052690429687500005	9.75012451171875	-0.43487548828125	-0.11444091796875	0.0762939453125
3.922	-0.05987548828125	0.045505371093750004	9.821975097656251	-0.09918212890625	0.18310546875	0.030517578125
3.932	0.045505371093750004	0.009580078125	9.941726074218751	-0.18310546875	0.0457763671875	0.00762939453125
3.94	-0.0335302734375	-0.026345214843750003	9.81239501953125	-0.02288818359375	0.06866455078125	0.2288818359375
3.948	-0.05987548828125	-0.0143701171875	9.8914306640625	-0.16021728515625	0.23651123046875	0.09918212890625
3.957	-0.028740234375	0.04071533203125	9.85071533203125	0.09918212890625	-0.00762939453125	0.091552734375
3.966	0.0	-0.028740234375	9.82676513671875	-0.48065185546875	-0.244140625	0.0762939453125
3.975	0.04071533203125	-0.00239501953125	9.79802490234375	-0.3814697265625	-0.0762939453125	0.06866455078125
3.983	0.0047900390625	0.0	9.857900390625	-0.32806396484375	0.396728515625	0.030517578125
3.991	0.02155517578125	0.00239501953125	9.857900390625	-0.3204345703125	0.25177001953125	0.1068115234375
3.999	0.055085449218750006	0.0143701171875	9.7716796875	-0.08392333984375	0.244140625	0.20599365234375
4.008	0.0143701171875	0.0335302734375	9.821975097656251	-0.030517578125	0.08392333984375	0.14495849609375
4.017	-0.01676513671875	-0.03592529296875	9.8435302734375	-0.244140625	0.335693359375	0.1678466796875
4.026	-0.13172607421875002	0.07424560546875	9.838740234375	-0.244140625	-0.4730224609375	0.11444091796875
4.035	-0.076640625	0.028740234375	9.81718505859375	-0.54931640625	-0.3662109375	0.09918212890625
4.044	0.11735595703125	0.0814306640625	9.793234863281251	-0.2288818359375	0.17547607421875	0.17547607421875
4.054	0.050295410156250005	0.03113525390625	9.874665527343751	-0.152587890625	0.457763671875	0.03814697265625
4.062	-0.02155517578125	-0.00239501953125	9.85550537109375	-0.31280517578125	0.25177001953125	0.06103515625
4.071	-0.05748046875	0.009580078125	9.8914306640625	-0.19073486328125	0.25177001953125	0.05340576171875
4.079	-0.086220703125	0.00718505859375	9.8339501953125	-0.1983642578125	0.06103515625	0.28228759765625
4.088	-0.07903564453125	0.0383203125	9.829160156250001	-0.1373291015625	-0.52642822265625	0.1373291015625
4.098	0.01916015625	-0.0143701171875	9.81718505859375	-0.12969970703125	-0.42724609375	0.0762939453125
4.107	0.08861572265625	0.05748046875	9.74533447265625	-0.06866455078125	0.23651123046875	0.0457763671875
4.115	0.028740234375	0.00718505859375	9.742939453125	-0.11444091796875	0.3509521484375	0.02288818359375
4.123	-0.00239501953125	-0.011975097656250001	9.73575439453125	-0.14495849609375	0.77056884765625	0.06103515625
4.132	0.06466552734375	0.03113525390625	9.769284667968751	0.02288818359375	0.640869140625	0.02288818359375
4.14	0.01916015625	0.0143701171875	9.8243701171875	-0.152587890625	0.5645751953125	0.14495849609375
4.149	0.00718505859375	-0.028740234375	9.972861328125001	-0.08392333984375	0.38909912109375	0.091552734375
4.159	0.4358935546875	-0.756826171875	10.420729980468751	-0.70953369140625	-6.05010986328125	2.8076171875
4.169	-0.22034179687500002	1.0011181640625	9.649533691406251	0.08392333984375	-12.02392578125	7.89642333984375
4.179	0.34727783203125	0.38080810546875005	9.275910644531251	-0.30517578125	17.4102783203125	2.87628173828125
4.19	-1.93278076171875	-0.052690429687500005	11.38352783203125	0.1220703125	-11.40594482421875	7.83538818359375
4.2	1.32444580078125	-0.28500732421875	9.27112060546875	0.18310546875	2.62451171875	8.11767578125
4.209	0.0143701171875	0.32572265625	10.02315673828125	0.02288818359375	-0.0457763671875	6.439208984375
4.218	1.4681469726562502	0.30895751953125	9.043593750000001	-0.3662109375	2.6397705078125	1.7852783203125
4.229	0.07903564453125	0.08861572265625	10.420729980468751	-0.34332275390625	2.3345947265625	-1.07574462890625
4.238	0.4742138671875	0.1580712890625	9.69743408203125	0.3814697265625	-11.474609375	-0.74005126953125
4.248	1.8154248046875001	0.14609619140625002	8.9430029296875	-0.43487548828125	13.51165771484375	-2.98309326171875
4.259	-0.62031005859375	0.32332763671875003	11.170371093750001	-0.29754638671875	-2.86102294921875	-0.42724609375
4.269	1.62142822265625	0.2442919921875	9.853110351562501	0.0	-9.735107421875	2.64739990234375
4.279	3.08478515625	0.26345214843750003	8.722661132812501	0.0	11.58905029296875	11.3525390625
4.289	1.4178515625	0.30895751953125	10.691367187500001	0.9765625	2.044677734375	16.16668701171875
4.299	2.4932153320312502	0.51013916015625	9.402846679687501	-0.35858154296875	5.035400390625	21.1029052734375
4.308	0.51492919921875	0.00239501953125	10.67220703125	-0.1220703125	-3.36456298828125	19.1802978515625
4.319	1.791474609375	0.26105712890625	9.49146240234375	-1.3885498046875	0.9765625	17.39501953125
4.33	0.89813232421875	0.44786865234375	9.8914306640625	-0.86212158203125	9.27734375	19.9127197265625
4.34	0.718505859375	0.21794677734375	8.89270751953125	-0.3662109375	-7.720947265625	18.24188232421875
4.35	0.045505371093750004	0.5029541015625	9.7381494140625	-3.8604736328125	-10.65826416015625	18.77593994140625
4.361	0.5460644531250001	-0.1197509765625	8.45681396484375	0.5035400390625	4.3182373046875	15.3045654296875
4.371	1.5447875976562502	0.10298583984375001	8.8519921875	0.12969970703125	11.7950439453125	13.52691650390625
4.381	-2.0812719726562503	0.21794677734375	11.26856689453125	1.312255859375	9.65118408203125	17.2576904296875
4.392	-1.78189453125	0.6514453125	10.801538085937501	0.02288818359375	-11.5966796875	15.0909423828125
4.402	1.0298583984375	-0.04071533203125	8.72026611328125	-0.5950927734375	3.83758544921875	7.01141357421875
4.412	5.247487792968751	0.27063720703125	5.7336767578125	0.30517578125	-10.0250244140625	5.08880615234375
4.423	7.616162109375001	-0.6059399414062501	3.55660400390625	1.83868408203125	80.902099609375	1.57928466796875
4.432	-7.367080078125	0.35685791015625	15.845449218750002	3.41796875	0.5645751953125	5.16510009765625
4.444	-4.22720947265625	-0.42870849609375	11.709250488281251	-2.93731689453125	-47.69134521484375	3.45611572265625
4.454	0.87418212890625	0.0	8.76816650390625	-0.2899169921875	22.3388671875	3.94439697265625
4.464	-2.43094482421875	0.13651611328125002	11.218271484375	-0.6256103515625	4.8370361328125	5.39398193359375
4.474	-0.51013916015625	0.03592529296875	10.3416943359375	-0.152587890625	-17.5323486328125	6.79779052734375
4.484	1.4705419921875	0.1484912109375	8.9525830078125	0.4425048828125	9.39178466796875	4.05120849609375
4.494	-0.948427734375	0.1149609375	10.29139892578125	-0.7171630859375	8.5601806640625	1.01470947265625
4.505	-1.2933105468750001	-0.28261230468750004	10.17643798828125	0.1220703125	-10.6048583984375	2.685546875
4.515	-1.28373046875	-0.06945556640625	9.90580078125	0.2593994140625	4.55474853515625	-2.47955322265625
4.527	-0.7424560546875001	-0.46223876953125004	10.11895751953125	-1.10626220703125	-5.218505859375	-4.78363037109375
4.536	0.37601806640625	-0.354462890625	9.16573974609375	1.24359130859375	4.82940673828125	-0.66375732421875
4.547	0.14609619140625002	-0.21794677734375	8.789721679687501	1.2054443359375	8.880615234375	-1.68609619140625
4.557	-2.8428881835937503	-0.086220703125	11.0889404296875	-0.42724609375	-2.960205078125	-1.3275146484375
4.569	-1.044228515625	0.14609619140625002	9.992021484375	-1.09100341796875	-19.1650390625	1.16729736328125
4.579	-0.613125	-0.0047900390625	10.061477050781251	-0.9307861328125	2.38800048828125	2.35748291015625
4.589	0.34248779296875004	0.38320312500000003	9.9393310546875	-1.65557861328125	-2.62451171875	5.37109375
4.598	0.1772314453125	0.20118164062500002	9.50583251953125	0.1983642578125	6.6986083984375	8.68988037109375
4.609	-1.101708984375	0.25147705078125	10.23870849609375	0.1678466796875	4.15802001953125	6.11114501953125
4.619	-0.19160156250000002	-0.06945556640625	9.5944482421875	0.091552734375	-9.31549072265625	3.9215087890625
4.628	2.4572900390625003	0.00718505859375	8.61488525390625	-0.02288818359375	15.350341796875	5.86700439453125
4.638	-1.00830322265625	0.18202148437500001	10.43031005859375	0.38909912109375	-2.3040771484375	4.06646728515625
4.648	-0.32811767578125	-0.09101074218750001	9.90580078125	0.58746337890625	-0.49591064453125	4.45556640625
4.658	1.23822509765625	0.00718505859375	8.842412109375001	0.25177001953125	3.47137451171875	-2.166748046875
4.668	0.26345214843750003	0.08382568359375	9.80281494140625	1.5106201171875	4.20379638671875	1.3885498046875
4.678	-0.10538085937500001	0.143701171875	10.032736816406251	-2.40325927734375	-5.950927734375	-2.72369384765625
4.689	-0.81670166015625	0.30895751953125	10.353669433593751	-0.12969970703125	-5.39398193359375	-1.80816650390625
4.699	1.08015380859375	0.25626708984375	8.62925537109375	0.34332275390625	6.77490234375	-3.326416015625
4.709	0.29458740234375	0.11017089843750001	9.80281494140625	-1.01470947265625	4.31060791015625	-2.14385986328125
4.719	-0.1676513671875	0.28979736328125	10.27702880859375	-0.41961669921875	-7.34710693359375	-1.76239013671875
4.73	-0.5125341796875	-0.11256591796875001	9.702224121093751	-0.93841552734375	6.378173828125	-1.9989013671875
4.741	-1.04662353515625	0.067060546875	10.50695068359375	-0.152587890625	-9.8876953125	-0.5645751953125
4.751	0.89334228515625	-0.1580712890625	8.83043701171875	-0.5035400390625	17.73834228515625	-2.78472900390625
4.762	-1.6310083007812501	0.27542724609375	11.00990478515625	0.6103515625	-9.91058349609375	-1.434326171875
4.772	0.87897216796875	0.25147705078125	9.51062255859375	-0.1983642578125	-3.4942626953125	-4.34112548828125
4.783	0.89334228515625	0.07903564453125	8.82085693359375	-0.72479248046875	6.14166259765625	-6.2255859375
4.793	-1.40587646484375	0.2682421875	10.997929687500001	0.1983642578125	1.85394287109375	-6.09588623046875
4.802	0.3209326171875	0.16525634765625	9.44356201171875	-0.43487548828125	0.06103515625	-4.608154296875
4.812	-0.718505859375	0.08861572265625	10.28900390625	-0.1373291015625	-5.30242919921875	-4.92095947265625
4.824	-0.354462890625	-0.32332763671875003	9.03161865234375	-0.457763671875	8.75091552734375	-8.12530517578125
4.835	-1.02746337890625	-0.01676513671875	10.23870849609375	-1.556396484375	-0.51116943359375	-8.70513916015625
4.845	0.11735595703125	0.23231689453125	9.980046386718751	-0.98419189453125	-5.2337646484375	-9.27734375
4.855	0.8430468750000001	0.4071533203125	9.9968115234375	-0.396728515625	2.44903564453125	-4.8370361328125
4.866	0.77838134765625	0.12214599609375	9.25675048828125	-0.93841552734375	-0.2899169921875	-6.53839111328125
4.877	-0.28021728515625	0.15328125	10.195598144531251	-0.79345703125	15.02227783203125	-7.40814208984375
4.887	-1.8010546875000002	0.0047900390625	10.7919580078125	-3.47900390625	-12.71820068359375	-6.9732666015625
4.898	-0.7999365234375	-0.17962646484375	9.93214599609375	-0.1220703125	-7.40814208984375	-4.1656494140625
4.909	1.24541015625	-0.10059082031250001	8.804091796875001	-0.0152587890625	3.48663330078125	-3.24249267578125
4.919	-0.18920654296875	-0.09819580078125001	9.93693603515625	0.2593994140625	8.76617431640625	-3.99017333984375
4.928	-0.20836669921875	0.01916015625	9.81718505859375	0.84686279296875	0.701904296875	-6.7596435546875
4.938	1.1951147460937501	-0.03113525390625	9.110654296875001	-0.64849853515625	7.3699951171875	-6.24847412109375
4.948	-1.12805419921875	0.40236328125000004	10.720107421875001	-1.47247314453125	-0.54168701171875	-5.950927734375
4.959	2.3040087890625003	0.39038818359375	8.26042236328125	1.190185546875	-0.19073486328125	-4.02069091796875
4.969	1.4729370117187501	0.1149609375	9.1585546875	0.3509521484375	12.64190673828125	-1.922607421875
4.98	-1.1112890625	0.2442919921875	10.360854492187501	-1.13677978515625	-3.83758544921875	-0.80108642578125
4.99	0.833466796875	0.052690429687500005	8.7705615234375	-0.946044921875	4.21142578125	-0.8087158203125
5.001	-1.6477734375000002	0.3305126953125	10.94763427734375	-0.51116943359375	-5.77545166015625	-0.48828125
5.011	0.40236328125000004	0.023950195312500002	9.522597656250001	1.2054443359375	-5.6915283203125	-3.36456298828125
5.021	1.983076171875	-0.24189697265625001	8.37538330078125	-0.46539306640625	17.78411865234375	-6.561279296875
5.031	-2.99137939453125	-0.0383203125	11.66614013671875	0.20599365234375	-6.30950927734375	-7.40814208984375
5.042	1.7771044921875	0.56282958984375	8.57656494140625	-0.12969970703125	-6.3018798828125	-2.34222412109375
5.053	1.0873388671875	-0.3305126953125	8.77295654296875	-0.19073486328125	19.012451171875	-1.16729736328125
5.063	-1.5711328125000001	0.07424560546875	11.064990234375001	-0.1220703125	-15.838623046875	1.89208984375
5.073	1.1567944335937501	0.43110351562500004	8.98611328125	-0.0152587890625	3.73077392578125	-2.1209716796875
5.083	-0.3975732421875	0.055085449218750006	10.1405126953125	-0.69427490234375	5.218505859375	-3.27301025390625
5.094	-0.7232958984375001	0.09101074218750001	10.3512744140625	-0.57220458984375	-7.54547119140625	-4.31060791015625
5.104	0.8095166015625	0.09580078125000001	9.201665039062501	-0.93841552734375	-1.24359130859375	-3.37982177734375
5.113	0.0	-0.00718505859375	9.9297509765625	0.05340576171875	3.9825439453125	-1.99127197265625
5.124	-0.45744873046875	-0.27063720703125	10.1500927734375	-0.48065185546875	-0.1373291015625	-2.02178955078125
5.134	1.28612548828125	0.07424560546875	9.29507080078125	-0.1983642578125	4.241943359375	-1.73187255859375
5.145	-0.74964111328125	-0.10777587890625001	10.42552001953125	-1.0223388671875	-2.75421142578125	-1.27410888671875
5.155	0.63228515625	-0.07903564453125	9.2495654296875	0.54168701171875	3.0975341796875	1.0986328125
5.165	-0.354462890625	0.0	9.860295410156251	0.57220458984375	5.91278076171875	-1.4190673828125
5.175	-1.1567944335937501	0.0622705078125	10.67220703125	0.335693359375	-6.5155029296875	-0.457763671875
5.184	0.055085449218750006	0.25626708984375	9.96567626953125	-1.19781494140625	0.89263916015625	1.2359619140625
5.195	-0.95082275390625	-0.17483642578125	10.106982421875001	-0.8544921875	-7.86590576171875	4.21905517578125
5.206	-0.01916015625	0.20357666015625	9.67827392578125	-0.54931640625	-1.25885009765625	4.32586669921875
5.215	0.31374755859375003	0.16525634765625	9.673483886718751	-0.38909912109375	1.59454345703125	4.486083984375
5.225	-0.8047265625000001	0.11256591796875001	10.50216064453125	-0.38909912109375	-0.4730224609375	5.01251220703125
5.235	0.8646020507812501	0.27063720703125	9.2399853515625	-1.13677978515625	-7.22503662109375	6.7901611328125
5.245	0.9580078125	0.38080810546875005	9.089099121093751	-0.26702880859375	4.3792724609375	8.85772705078125
5.256	-0.296982421875	0.44786865234375	10.0351318359375	-0.3509521484375	-0.92315673828125	8.1329345703125
5.265	0.4167333984375	0.4071533203125	9.426796875	-0.18310546875	5.3863525390625	4.90570068359375
5.275	0.7137158203125	-0.11735595703125	9.6902490234375	2.57110595703125	5.9356689453125	6.69097900390625
5.285	0.67779052734375	0.09101074218750001	9.20406005859375	0.7171630859375	6.37054443359375	5.31005859375
5.296	-0.12214599609375	0.17004638671875	9.733359375000001	-1.129150390625	2.96783447265625	7.720947265625
5.307	-1.6142431640625001	-0.11735595703125	10.4374951171875	-0.457763671875	-9.7808837890625	5.04302978515625
5.316	1.45856689453125	0.47181884765625004	8.430468750000001	1.6937255859375	9.13238525390625	5.19561767578125
5.326	-0.5795947265625	-0.1772314453125	10.233918457031251	0.6866455078125	5.59234619140625	6.03485107421875
5.337	-0.7280859375000001	0.35206787109375004	10.22912841796875	-0.17547607421875	-5.0048828125	4.364013671875
5.347	0.71611083984375	0.469423828125	9.52020263671875	0.30517578125	1.99127197265625	3.05938720703125
5.356	0.23231689453125	0.06466552734375	9.69743408203125	-0.457763671875	2.7313232421875	1.53350830078125
5.366	-1.44419677734375	0.03113525390625	10.86620361328125	-1.57928466796875	-0.30517578125	1.19781494140625
5.377	-0.7616162109375001	0.0383203125	10.317744140625	0.2899169921875	-21.26312255859375	3.2806396484375
5.387	2.24173828125	-1.1136840820312501	8.11193115234375	1.88446044921875	12.50457763671875	4.05120849609375
5.397	-1.2933105468750001	0.28261230468750004	11.012299804687501	-0.12969970703125	1.9378662109375	4.058837890625
5.408	-0.0814306640625	-0.28500732421875	9.374106445312501	-1.46484375	-20.721435546875	2.49481201171875
5.419	0.6370751953125	-0.01916015625	9.536967773437501	-0.0762939453125	11.3983154296875	5.37109375
5.429	-1.4849121093750002	-0.3400927734375	10.90212890625	-0.22125244140625	-8.7127685546875	4.608154296875
5.439	1.0873388671875	0.026345214843750003	9.21364013671875	-0.1373291015625	-4.63104248046875	8.0718994140625
5.45	0.69216064453125	-0.25147705078125	8.97413818359375	1.4801025390625	17.72308349609375	10.31494140625
5.46	-2.47166015625	-0.14609619140625002	11.122470703125	0.67901611328125	-16.57867431640625	9.08660888671875
5.472	1.95673095703125	-0.17004638671875	8.332272949218751	0.3204345703125	15.20538330078125	7.843017578125
5.482	-2.31598388671875	-0.22752685546875	11.079360351562501	0.18310546875	-1.89208984375	9.39178466796875
5.493	-0.6873706054687501	0.1197509765625	9.92256591796875	-1.861572265625	-9.8876953125	4.1961669921875
5.502	-0.6562353515625	0.01676513671875	9.9968115234375	-0.18310546875	-0.9613037109375	0.45013427734375
5.513	0.10059082031250001	0.22752685546875	9.4986474609375	-0.5035400390625	0.93841552734375	-2.7008056640625
5.523	-0.69695068359375	0.04071533203125	10.427915039062501	0.1678466796875	2.4261474609375	-2.86102294921875
5.533	-1.005908203125	0.70174072265625	10.114167480468751	-0.19073486328125	-0.70953369140625	-3.79180908203125
5.542	0.51013916015625	0.48379394531250003	9.6040283203125	-0.1220703125	3.25775146484375	-0.091552734375
5.553	-0.19878662109375	0.27542724609375	9.72138427734375	-1.47247314453125	-4.8980712890625	1.39617919921875
5.564	-0.3209326171875	0.8238867187500001	10.0447119140625	-0.17547607421875	-1.56402587890625	1.7852783203125
5.574	0.28740234375	0.86939208984375	9.82676513671875	-0.83160400390625	-1.6937255859375	2.6092529296875
5.583	-0.30895751953125	0.5412744140625	10.34408935546875	0.17547607421875	3.2958984375	4.24957275390625
5.594	0.28740234375	0.258662109375	9.73575439453125	-0.00762939453125	-2.90679931640625	3.79180908203125
5.604	0.852626953125	-0.1293310546875	9.41482177734375	-1.35040283203125	4.6234130859375	1.83868408203125
5.614	-1.06099365234375	0.6753955078125	10.509345703125	-1.28936767578125	-13.85498046875	0.42724609375
5.625	1.2981005859375	-0.24908203125	8.87833740234375	1.52587890625	14.6942138671875	2.23541259765625
5.636	-1.35797607421875	0.6753955078125	10.6290966796875	-0.79345703125	-0.42724609375	-0.25177001953125
5.646	0.775986328125	0.7903564453125	9.30465087890625	-0.4425048828125	1.50299072265625	-1.24359130859375
5.657	-1.72680908203125	0.009580078125	10.90452392578125	-2.98309326171875	-7.48443603515625	-2.7313232421875
5.666	2.3231689453125	0.055085449218750006	8.32748291015625	1.21307373046875	-4.38690185546875	1.15966796875
5.677	2.06211181640625	0.09819580078125001	8.68673583984375	-1.2969970703125	11.39068603515625	2.60162353515625
5.688	-1.36276611328125	-0.162861328125	10.835068359375	-0.6103515625	-6.134033203125	5.157470703125
5.698	-0.06466552734375	-0.26105712890625	9.536967773437501	-1.373291015625	-0.29754638671875	6.05010986328125
5.708	-0.14609619140625002	-0.026345214843750003	9.9584912109375	-1.45721435546875	-1.2664794921875	4.28009033203125
5.72	-0.9651928710937501	-0.7041357421875001	10.28181884765625	-1.03759765625	-2.43377685546875	4.66156005859375
5.73	-0.1676513671875	-0.21555175781250002	9.74533447265625	-1.62506103515625	-4.3792724609375	2.29644775390625
5.74	0.22273681640625	-0.0383203125	9.3645263671875	-0.99945068359375	-0.12969970703125	-1.007080078125
5.751	1.00830322265625	-0.22034179687500002	9.3118359375	1.59454345703125	8.67462158203125	-1.07574462890625
5.762	-0.36404296875000003	0.32572265625	10.23870849609375	2.90679931640625	-3.082275390625	0.87738037109375
5.772	0.9005273437500001	-0.1676513671875	9.273515625	1.73187255859375	8.1024169921875	1.4495849609375
5.781	-0.08382568359375	0.36643798828125	10.030341796875	0.57220458984375	3.88336181640625	1.129150390625
5.791	0.65384033203125	-0.03113525390625	9.129814453125	0.9307861328125	1.01470947265625	0.93841552734375
5.8	0.32811767578125	0.0335302734375	9.620793457031251	0.4119873046875	7.14111328125	0.54168701171875
5.811	-0.8861572265625001	-0.47900390625	10.3895947265625	-0.6866455078125	-4.8065185546875	-0.0762939453125
5.82	1.4322216796875	0.09819580078125001	8.61967529296875	0.244140625	4.02069091796875	0.14495849609375
5.829	0.18202148437500001	-0.51013916015625	9.474697265625	0.54168701171875	5.584716796875	-0.457763671875
5.84	-0.95561279296875	-0.31374755859375003	10.5907763671875	1.01470947265625	2.28118896484375	0.91552734375
5.85	-0.10298583984375001	-0.0335302734375	9.7285693359375	-0.4119873046875	0.02288818359375	1.19781494140625
5.859	0.05987548828125	0.27303222656250004	9.647138671875	0.95367431640625	2.92205810546875	2.74658203125
5.869	-0.33290771484375004	-0.12214599609375	10.02794677734375	0.19073486328125	-1.99127197265625	0.396728515625
5.879	-1.1136840820312501	-0.5843847656250001	10.638676757812501	-0.17547607421875	-6.85882568359375	-0.69427490234375
5.891	-0.6251000976562501	0.4742138671875	10.286608886718751	-0.83160400390625	-8.8043212890625	-1.3885498046875
5.901	0.20357666015625	-0.12214599609375	9.75251953125	-0.74005126953125	1.373291015625	-1.27410888671875
5.911	-0.1484912109375	-0.01916015625	9.7189892578125	-0.40435791015625	-0.67901611328125	-0.885009765625
5.921	-0.9867480468750001	0.050295410156250005	10.128537597656251	-1.9378662109375	-6.1187744140625	-2.70843505859375
5.932	0.737666015625	0.46223876953125004	9.3549462890625	0.0152587890625	2.66265869140625	-4.1351318359375
5.942	-0.54366943359375	0.076640625	9.9584912109375	-0.89263916015625	-3.7689208984375	-3.19671630859375
5.952	1.21906494140625	0.5245092773437501	9.1585546875	-0.3509521484375	-1.220703125	-1.9378662109375
5.962	0.40236328125000004	0.1772314453125	9.448352050781251	-0.8544921875	7.95745849609375	-0.6561279296875
5.972	0.16046630859375	0.02155517578125	10.106982421875001	1.7547607421875	-1.24359130859375	1.38092041015625
5.982	0.30177246093750004	-0.24908203125	9.553732910156251	-0.823974609375	3.92913818359375	-0.55694580078125
5.992	-0.14609619140625002	-0.23231689453125	9.9105908203125	1.28173828125	0.640869140625	-1.03759765625
6.003	-0.1149609375	-0.16046630859375	9.8435302734375	-0.31280517578125	-1.02996826171875	-2.99072265625
6.013	-0.31374755859375003	0.15088623046875002	9.896220703125001	-1.6937255859375	-3.28826904296875	-6.84356689453125
6.024	0.0814306640625	0.162861328125	9.79802490234375	-0.49591064453125	2.92205810546875	-7.37762451171875
6.033	0.36404296875000003	0.45984375	9.474697265625	0.55694580078125	2.93731689453125	-6.561279296875
6.043	-0.3065625	0.71611083984375	10.015971679687501	1.13677978515625	3.34930419921875	-5.218505859375
6.053	-0.51971923828125	-0.45265869140625004	10.18601806640625	-0.37384033203125	0.41961669921875	-6.866455078125
6.065	-0.689765625	0.09340576171875001	9.80281494140625	-0.02288818359375	-4.50897216796875	-7.7972412109375
6.074	0.5843847656250001	0.09819580078125001	9.35255126953125	0.1373291015625	6.378173828125	-9.2926025390625
6.085	-0.09101074218750001	-0.047900390625000004	9.687854003906251	-2.25830078125	-1.91497802734375	-11.444091796875
6.096	-1.72680908203125	-0.09340576171875001	11.220666503906251	0.54168701171875	-8.4075927734375	-9.04083251953125
6.108	1.39869140625	-0.17244140625	8.835227050781251	-0.1220703125	8.52203369140625	-10.04791259765625
6.118	-0.8478369140625001	0.24908203125	10.51653076171875	0.19073486328125	4.7149658203125	-11.72637939453125
6.129	-0.64905029296875	-0.51732421875	10.00399658203125	-1.18255615234375	-5.63812255859375	-13.0462646484375
6.139	0.55564453125	0.1389111328125	9.4651171875	-1.16729736328125	0.6561279296875	-14.47296142578125
6.15	-0.045505371093750004	0.1149609375	10.032736816406251	0.57220458984375	-4.58526611328125	-13.9617919921875
6.16	1.063388671875	-0.045505371093750004	9.5657080078125	-1.09100341796875	1.3427734375	-14.73236083984375
6.171	0.7280859375000001	-0.23710693359375	9.89861572265625	-0.89263916015625	-3.90625	-12.115478515625
6.181	1.97110107421875	-0.07424560546875	8.79451171875	0.52642822265625	6.73675537109375	-7.69805908203125
6.192	0.871787109375	-0.124541015625	9.47230224609375	0.41961669921875	5.83648681640625	-2.4261474609375
6.201	-0.21076171875000002	-0.05748046875	9.886640625	0.1373291015625	-1.56402587890625	0.23651123046875
6.212	-0.5460644531250001	-0.46223876953125004	9.97046630859375	-1.8157958984375	-7.37762451171875	0.152587890625
6.223	-0.929267578125	-0.1389111328125	10.011181640625	-1.617431640625	-8.58306884765625	-0.55694580078125
6.234	-0.36164794921875004	-0.4454736328125	9.91777587890625	-0.93841552734375	0.96893310546875	-2.60162353515625
6.245	-0.9627978515625001	-0.3784130859375	10.2746337890625	-0.75531005859375	-3.1280517578125	-3.6468505859375
6.255	0.239501953125	-0.30416748046875003	9.55852294921875	0.3204345703125	-2.35748291015625	-7.14111328125
6.265	0.37601806640625	0.045505371093750004	9.529782714843751	-1.12152099609375	12.0849609375	-8.14056396484375
6.277	-0.99393310546875	-0.488583984375	10.55006103515625	0.9918212890625	-7.37762451171875	-7.63702392578125
6.287	0.3879931640625	0.27303222656250004	9.553732910156251	-0.64849853515625	12.8021240234375	-6.988525390625
6.297	-1.18553466796875	0.5221142578125	10.6290966796875	0.60272216796875	-3.7078857421875	-4.4708251953125
6.308	-0.22513183593750002	-0.469423828125	9.81718505859375	-1.007080078125	-7.7362060546875	-4.46319580078125
6.318	0.8382568359375	-0.0335302734375	9.237590332031251	0.63323974609375	1.4495849609375	-3.265380859375
6.328	0.5316943359375	0.20118164062500002	9.608818359375	-0.38909912109375	3.9520263671875	-1.77764892578125
6.338	-0.42391845703125003	-0.11735595703125	10.3129541015625	-0.87738037109375	-1.800537109375	1.4190673828125
6.348	1.60226806640625	0.10777587890625001	8.6987109375	0.3509521484375	6.61468505859375	2.3956298828125
6.359	-0.31853759765625	0.69216064453125	10.293793945312501	-0.1068115234375	13.85498046875	2.49481201171875
6.37	-2.97700927734375	-1.1136840820312501	12.22178466796875	1.9378662109375	-25.26092529296875	5.7830810546875
6.379	1.5280224609375002	0.124541015625	8.995693359375	0.152587890625	23.75030517578125	4.486083984375
6.389	-1.4944921875000001	-0.14609619140625002	11.21108642578125	0.75531005859375	-0.54168701171875	4.79888916015625
6.4	2.16270263671875	0.22752685546875	7.80536865234375	1.129150390625	-17.00592041015625	5.43212890625
6.411	0.9196875	-0.7879614257812501	9.24717041015625	0.7781982421875	27.61077880859375	2.90679931640625
6.421	-4.665498046875	0.25626708984375	12.854069824218751	1.77001953125	-15.9454345703125	2.5482177734375
6.431	1.76033935546875	-0.37122802734375004	8.624465332031251	0.579833984375	-2.410888671875	4.7760009765625
6.441	0.39038818359375	1.18074462890625	9.57289306640625	-0.1068115234375	14.678955078125	4.35638427734375
6.453	-3.40332275390625	-1.2214599609375	12.209809570312501	0.9765625	-25.4669189453125	3.47137451171875
6.463	-0.0814306640625	0.4646337890625	9.283095703125001	0.63323974609375	15.25115966796875	2.47955322265625
6.473	-1.89446044921875	0.18681152343750002	11.06259521484375	0.6866455078125	-8.3770751953125	5.13458251953125
6.482	2.02858154296875	0.09101074218750001	8.1286962890625	1.15966796875	3.65447998046875	2.46429443359375
6.493	1.3364208984375001	0.27542724609375	8.931027832031251	1.38092041015625	10.18524169921875	2.593994140625
6.504	-1.2214599609375	-0.22513183593750002	10.92368408203125	0.80108642578125	-3.97491455078125	5.43975830078125
6.513	0.6251000976562501	0.32332763671875003	9.580078125	1.13677978515625	-0.16021728515625	5.0506591796875
6.524	1.43940673828125	0.871787109375	8.29874267578125	1.86920166015625	19.70672607421875	7.32421875
6.535	-1.59747802734375	-0.45984375	10.92368408203125	1.4495849609375	-10.9100341796875	9.033203125
6.545	0.32572265625	0.19639160156250002	9.685458984375	-0.19073486328125	6.134033203125	6.28662109375
6.555	0.143701171875	0.15088623046875002	9.86508544921875	1.5106201171875	-1.4190673828125	7.14874267578125
6.565	0.98914306640625	-0.3305126953125	9.52020263671875	-0.9613037109375	8.59832763671875	5.218505859375
6.576	-0.08382568359375	-0.37601806640625	9.635163574218751	0.06103515625	-5.05828857421875	5.80596923828125
6.586	-0.46223876953125004	-0.316142578125	10.32492919921875	-0.5950927734375	10.2996826171875	4.1961669921875
6.596	-1.13284423828125	0.162861328125	10.78477294921875	-1.76239013671875	-9.94110107421875	3.814697265625
6.606	0.88855224609375	-0.39278320312500004	8.8903125	0.5340576171875	6.64520263671875	3.9520263671875
6.616	-1.22385498046875	0.0	10.5907763671875	-0.48065185546875	6.53076171875	3.53240966796875
6.627	-0.8095166015625	-0.622705078125	10.2746337890625	-0.20599365234375	-12.14599609375	0.66375732421875
6.637	0.83586181640625	-0.03113525390625	9.10107421875	-0.0457763671875	11.0626220703125	-0.74005126953125
6.647	-1.101708984375	0.22034179687500002	10.621911621093751	-0.9613037109375	-4.9591064453125	-1.3580322265625
6.659	0.277822265625	-0.076640625	9.168134765625	-0.823974609375	-1.52587890625	-2.37274169921875
6.669	0.5867797851562501	-0.17962646484375	9.60163330078125	0.77056884765625	17.09747314453125	-0.5035400390625
6.679	-1.3651611328125002	-0.277822265625	10.765612792968751	-1.4190673828125	-5.1116943359375	1.88446044921875
6.69	0.613125	-0.45744873046875	9.575288085937501	-0.396728515625	-2.5634765625	1.15203857421875
6.701	1.5184423828125	-0.70174072265625	9.163344726562501	-0.9765625	7.43865966796875	-1.36566162109375
6.712	-1.5950830078125	0.076640625	10.854228515625001	-0.67138671875	-8.56781005859375	-3.10516357421875
6.723	1.9687060546875002	-0.6658154296875001	8.332272949218751	-0.91552734375	0.90789794921875	-0.99945068359375
6.733	-0.689765625	0.37122802734375004	10.008786621093751	-1.1138916015625	9.185791015625	-3.01361083984375
6.744	-0.53887939453125	0.06466552734375	10.1500927734375	-0.2593994140625	-7.62176513671875	-3.1890869140625
6.755	1.29570556640625	-0.31374755859375003	8.916657714843751	0.579833984375	-4.5318603515625	-2.227783203125
6.765	1.2933105468750001	0.5604345703125	8.9334228515625	-1.06048583984375	11.993408203125	-0.274658203125
6.775	-1.8609301757812502	0.35685791015625	10.835068359375	-0.0457763671875	-5.22613525390625	-0.0762939453125
6.785	0.15567626953125	-0.30177246093750004	9.9249609375	-0.5645751953125	-6.0577392578125	0.43487548828125
6.795	0.28261230468750004	-0.11735595703125	9.38608154296875	-0.54931640625	9.65118408203125	1.861572265625
6.806	-1.5855029296875	0.22273681640625	10.88296875	-1.51824951171875	-10.833740234375	2.03704833984375
6.816	0.9436376953125001	0.83586181640625	8.6077001953125	-1.28936767578125	4.06646728515625	-0.1678466796875
6.825	-0.5077441406250001	0.00718505859375	10.339299316406251	0.23651123046875	6.66046142578125	-2.06756591796875
6.837	-0.026345214843750003	0.15088623046875002	9.59923828125	-1.89208984375	-8.36944580078125	-5.7220458984375
6.847	0.29458740234375	0.5269042968750001	9.75012451171875	-1.3580322265625	1.1138916015625	-7.05718994140625
6.857	-0.1580712890625	0.3879931640625	9.3166259765625	1.312255859375	-6.5765380859375	-6.14166259765625
6.867	-0.74964111328125	0.026345214843750003	10.46863037109375	-1.068115234375	-4.96673583984375	-4.8828125
6.879	0.77359130859375	0.335302734375	9.723779296875	-0.28228759765625	-8.30078125	-4.31060791015625
6.889	0.46702880859375	0.56282958984375	9.84113525390625	-1.15203857421875	3.63922119140625	-2.90679931640625
6.899	0.8478369140625001	-0.65384033203125	9.733359375000001	0.43487548828125	-6.988525390625	1.434326171875
6.909	-0.85981201171875	1.05620361328125	9.987231445312501	0.48065185546875	12.5579833984375	1.68609619140625
6.92	-0.75443115234375	-0.38320312500000003	10.3800146484375	0.732421875	-7.56072998046875	-2.69317626953125
6.93	1.7387841796875	0.40954833984375	8.899892578125	-0.0152587890625	13.946533203125	-3.34930419921875
6.941	-1.9088305664062502	-0.11256591796875001	10.571616210937501	0.4119873046875	-8.46099853515625	-3.8909912109375
6.95	1.082548828125	0.13172607421875002	9.36692138671875	0.152587890625	3.96728515625	-4.53948974609375
6.961	-0.55324951171875	0.81670166015625	9.980046386718751	0.335693359375	0.1983642578125	-3.77655029296875
6.971	-0.21315673828125	-0.43110351562500004	10.068662109375001	0.11444091796875	-1.33514404296875	-0.9002685546875
6.981	-0.4550537109375	1.2789404296875	9.31902099609375	0.49591064453125	1.80816650390625	1.220703125
6.991	0.14130615234375002	-0.7831713867187501	10.24349853515625	-0.22125244140625	-0.32806396484375	0.91552734375
7.002	-0.7711962890625	1.51365234375	10.60275146484375	-0.579833984375	15.2435302734375	0.4730224609375
7.012	-0.22513183593750002	-0.91250244140625	10.1021923828125	0.0152587890625	-1.42669677734375	-1.6021728515625
7.023	-1.6717236328125	0.3592529296875	10.68418212890625	0.43487548828125	-12.51220703125	-4.8065185546875
7.033	1.0921289062500001	-0.1772314453125	7.814948730468751	-0.32806396484375	14.1754150390625	-8.2244873046875
7.045	-1.638193359375	0.6083349609375001	11.019484863281251	0.06866455078125	-9.97161865234375	-4.12750244140625
7.055	0.28021728515625	0.55564453125	9.223220214843751	-0.6561279296875	20.37811279296875	-3.53240966796875
7.065	-0.7831713867187501	-0.00718505859375	10.0255517578125	0.1220703125	-18.3258056640625	-5.62286376953125
7.075	1.6357983398437501	0.08861572265625	9.17531982421875	0.4425048828125	11.566162109375	-2.11334228515625
7.085	-0.689765625	0.4646337890625	10.4087548828125	0.17547607421875	0.48065185546875	-0.41961669921875
7.095	-0.18920654296875	0.26105712890625	10.075847167968751	0.41961669921875	-13.95416259765625	4.1961669921875
7.105	1.312470703125	0.26345214843750003	8.423283691406251	-0.40435791015625	10.13946533203125	-1.80816650390625
7.115	-1.74357421875	0.25626708984375	10.91889404296875	-0.51116943359375	-3.2806396484375	1.02996826171875
7.126	0.641865234375	0.47660888671875	9.1537646484375	-0.335693359375	1.86920166015625	-0.51116943359375
7.136	0.81191162109375	-0.35685791015625	9.17531982421875	-0.8392333984375	1.15203857421875	-0.45013427734375
7.146	0.026345214843750003	0.27063720703125	9.762099609375001	-4.0740966796875	1.44195556640625	-0.28228759765625
7.156	0.7232958984375001	0.0622705078125	10.14290771484375	-3.9520263671875	3.4942626953125	-1.1749267578125
7.166	-0.76880126953125	0.1293310546875	10.20517822265625	-1.94549560546875	-7.17926025390625	-2.78472900390625
7.178	1.4561718750000001	0.0718505859375	8.504714355468751	-0.823974609375	15.52581787109375	-4.9591064453125
7.189	-1.8489550781250002	1.0322534179687501	9.19927001953125	-1.220703125	-11.63482666015625	-3.4027099609375
7.2	2.0453466796875	-0.85023193359375	9.2351953125	1.1444091796875	8.56781005859375	-3.30352783203125
7.211	-2.308798828125	0.8406518554687501	11.01708984375	0.12969970703125	-5.2337646484375	-3.60870361328125
7.222	1.1927197265625	-0.20597167968750002	8.047265625	-2.2125244140625	-1.06048583984375	-0.4730224609375
7.231	0.5077441406250001	-0.3209326171875	9.53936279296875	-2.99072265625	4.7760009765625	-0.20599365234375
7.242	-1.4322216796875	-0.0718505859375	9.3166259765625	-2.0294189453125	-1.04522705078125	-2.105712890625
7.254	0.99393310546875	-0.296982421875	9.441166992187501	-3.4332275390625	-0.51116943359375	-1.8463134765625
7.264	0.7664062500000001	-0.45744873046875	9.529782714843751	-1.068115234375	9.22393798828125	-5.3253173828125
7.275	-1.791474609375	0.3879931640625	10.90931396484375	-0.9918212890625	-16.2200927734375	-1.46484375
7.286	1.1903247070312502	-0.0383203125	9.8483203125	-2.4566650390625	4.302978515625	-5.24139404296875
7.297	-1.17116455078125	0.09340576171875001	10.4758154296875	0.02288818359375	-8.62884521484375	-3.19671630859375
7.308	2.34472412109375	-0.6370751953125	9.00766845703125	-0.81634521484375	10.43701171875	-1.94549560546875
7.319	-1.4801220703125	-0.26345214843750003	10.835068359375	-4.82940673828125	-4.43267822265625	-1.59454345703125
7.329	2.1219873046875	0.13412109375	9.053173828125	-3.6773681640625	9.3841552734375	-3.7078857421875
7.34	1.3483959960937502	-0.680185546875	10.1548828125	-3.692626953125	-2.3345947265625	0.5035400390625
7.351	-0.680185546875	0.162861328125	11.66135009765625	-3.19671630859375	-1.220703125	-6.0272216796875
7.361	1.7411791992187502	-0.41194335937500004	9.036408691406251	-0.946044921875	-0.6103515625	-2.86865234375
7.372	3.7673657226562502	-1.0873388671875	5.77439208984375	1.40380859375	27.74810791015625	1.6021728515625
7.383	-2.069296875	0.08861572265625	9.9680712890625	-0.335693359375	12.5274658203125	-2.23541259765625
7.394	-1.4346166992187501	-0.57719970703125	10.011181640625	0.61798095703125	-29.4036865234375	-3.79180908203125
7.404	1.0777587890625	-0.85502197265625	10.099797363281251	0.06103515625	20.31707763671875	-1.91497802734375
7.414	-1.120869140625	-0.59396484375	10.605146484375	0.95367431640625	-20.40863037109375	2.9754638671875
7.426	1.26217529296875	0.3496728515625	8.68673583984375	-0.579833984375	10.79559326171875	-5.63812255859375
7.436	-1.2310400390625	-0.488583984375	11.7020654296875	0.213623046875	8.03375244140625	-7.232666015625
7.445	0.51013916015625	0.028740234375	9.00287841796875	0.4425048828125	-3.76129150390625	-1.51824951171875
7.456	2.078876953125	-0.28021728515625	9.27112060546875	-5.18798828125	7.2174072265625	-5.36346435546875
7.467	0.38080810546875005	-0.17244140625	10.286608886718751	0.54168701171875	9.5977783203125	-4.28009033203125
7.478	-0.9244775390625001	0.28979736328125	10.95721435546875	-1.07574462890625	-17.31109619140625	-7.69805908203125
7.488	1.6477734375000002	-0.5604345703125	8.34664306640625	1.6937255859375	9.3841552734375	-3.997802734375
7.499	-0.77359130859375	0.3879931640625	10.015971679687501	-0.43487548828125	8.94927978515625	-1.9989013671875
7.51	0.33290771484375004	-0.18441650390625	9.75012451171875	0.518798828125	9.23919677734375	-1.48773193359375
7.52	-0.9915380859375	0.36643798828125	10.97876953125	-1.708984375	-4.364013671875	2.34222412109375
7.531	0.25147705078125	-0.59635986328125	11.80265625	-2.66265869140625	-20.37811279296875	-2.60162353515625
7.541	1.3843212890625	-0.11256591796875001	8.5981201171875	-3.8604736328125	17.47894287109375	1.2054443359375
7.553	-2.251318359375	0.22513183593750002	10.413544921875001	-2.5787353515625	-14.5111083984375	-1.04522705078125
7.562	0.3305126953125	-0.03113525390625	9.73096435546875	-0.58746337890625	-0.06103515625	-7.13348388671875
7.572	-0.5269042968750001	-0.028740234375	9.570498046875	-0.0152587890625	9.7198486328125	-7.08770751953125
7.584	-2.069296875	-0.08861572265625	11.33562744140625	-1.6326904296875	-7.17926025390625	-8.7127685546875
7.595	-0.31853759765625	-0.30177246093750004	8.35143310546875	-1.38092041015625	6.98089599609375	-5.4779052734375
7.605	0.5604345703125	-0.7831713867187501	10.08542724609375	-0.030517578125	-4.81414794921875	-8.29315185546875
7.616	-1.025068359375	-0.41912841796875	10.494975585937501	-0.457763671875	15.0299072265625	-4.08172607421875
7.627	-1.96152099609375	0.6849755859375001	11.88648193359375	-1.10626220703125	-12.51983642578125	0.4119873046875
7.639	5.3025732421875	-1.1639794921875	5.9180932617187505	-1.129150390625	-6.7596435546875	-8.8348388671875
7.649	-3.4679882812500002	0.143701171875	11.620634765625	0.91552734375	24.90997314453125	-2.09808349609375
7.66	1.3915063476562501	-0.8765771484375	9.553732910156251	-0.67901611328125	-32.9742431640625	3.73077392578125
7.67	-0.3448828125	0.13172607421875002	10.5811962890625	-0.96893310546875	13.42010498046875	-1.190185546875
7.682	1.0777587890625	-0.67300048828125	8.86875732421875	-0.32806396484375	-15.350341796875	-6.93511962890625
7.693	-2.1028271484375	-0.54366943359375	12.830119628906251	-0.2593994140625	-6.29425048828125	-2.35748291015625
7.703	0.47181884765625004	-0.29219238281250004	9.44356201171875	-1.56402587890625	-13.5498046875	-3.7689208984375
7.714	1.4705419921875	0.10298583984375001	9.41482177734375	-0.77056884765625	35.01129150390625	-10.90240478515625
7.726	-2.9650341796875	-0.67060546875	11.42184814453125	0.54168701171875	-30.5328369140625	-9.2926025390625
7.737	1.49209716796875	-0.13651611328125002	9.103469238281251	-0.32806396484375	17.486572265625	-10.91766357421875
7.747	-0.0335302734375	0.17962646484375	9.536967773437501	-0.335693359375	-4.89044189453125	-12.75634765625
7.758	1.11847412109375	-0.17004638671875	9.54415283203125	-0.9307861328125	8.68988037109375	-7.2479248046875
7.77	-2.7399023437500003	0.316142578125	11.005114746093751	-0.89263916015625	-6.17218017578125	-9.91058349609375
7.78	2.4381298828125	-0.3400927734375	7.20661376953125	0.83160400390625	-3.2501220703125	-9.9639892578125
7.79	1.4178515625	-0.15088623046875002	10.509345703125	-0.5950927734375	0.8392333984375	2.26593017578125
7.799	0.01916015625	0.045505371093750004	8.842412109375001	-0.25177001953125	4.64630126953125	-1.8310546875
7.811	2.02379150390625	0.0814306640625	9.096284179687501	-0.3509521484375	14.5111083984375	-7.85064697265625
7.821	0.6753955078125	-0.5221142578125	9.62558349609375	-1.01470947265625	4.8980712890625	4.24957275390625
7.83	0.25626708984375	0.239501953125	9.30465087890625	-0.3509521484375	5.645751953125	-5.48553466796875
7.841	-0.011975097656250001	-0.13651611328125002	10.952424316406251	-1.220703125	1.18255615234375	-3.83758544921875
7.853	-0.42870849609375	-0.42152343750000004	11.18953125	-1.2359619140625	-8.8043212890625	-3.08990478515625
7.863	1.3364208984375001	0.3209326171875	8.497529296875001	-0.701904296875	12.542724609375	-11.77978515625
7.874	-0.85981201171875	-0.277822265625	11.02906494140625	0.7781982421875	-10.44464111328125	-2.03704833984375
7.884	1.9303857421875001	0.29937744140625	7.69040771484375	0.2593994140625	19.98138427734375	-0.22125244140625
7.895	-4.0882983398437505	0.25626708984375	13.706696777343751	0.5950927734375	-16.05987548828125	1.8157958984375
7.905	0.85502197265625	0.49097900390625004	7.29283447265625	-1.16729736328125	6.072998046875	0.90789794921875
7.914	-1.45377685546875	0.011975097656250001	9.723779296875	1.01470947265625	-1.2054443359375	4.2877197265625
7.924	-0.04071533203125	0.21315673828125	9.97525634765625	1.13677978515625	-2.54058837890625	-1.76239013671875
7.934	0.3209326171875	0.00239501953125	10.7440576171875	-1.47247314453125	9.78851318359375	2.25067138671875
7.946	-1.73159912109375	-0.10777587890625001	11.80984130859375	-0.87738037109375	-25.69580078125	4.913330078125
7.956	-0.37122802734375004	0.41194335937500004	10.248288574218751	-0.8697509765625	24.33013916015625	0.42724609375
7.966	-1.4681469726562502	-0.38559814453125	10.40156982421875	-0.1678466796875	-23.04840087890625	0.79345703125
7.976	1.4801220703125	0.24908203125	7.9873901367187505	-1.0223388671875	5.42449951171875	4.89044189453125
7.988	-1.4992822265625	-0.05748046875	10.63628173828125	-0.946044921875	9.23919677734375	5.8746337890625
7.998	2.5051904296875	-0.10538085937500001	8.7801416015625	-0.75531005859375	1.83868408203125	-0.93841552734375
8.008	0.44307861328125003	0.18202148437500001	10.4470751953125	-0.77056884765625	10.52093505859375	-1.39617919921875
8.017	0.6274951171875001	0.11735595703125	9.1825048828125	0.0762939453125	2.66265869140625	2.6092529296875
8.028	-0.7520361328125	0.22273681640625	11.82421142578125	-0.69427490234375	10.24627685546875	5.401611328125
8.039	-2.864443359375	0.17004638671875	10.9356591796875	-0.29754638671875	-32.40203857421875	1.21307373046875
8.049	3.8248461914062504	-0.335302734375	7.94427978515625	0.457763671875	31.0516357421875	4.3792724609375
8.06	-1.38192626953125	-0.30416748046875003	8.94539794921875	-1.42669677734375	15.76995849609375	10.0555419921875
8.071	-1.67890869140625	-0.01676513671875	12.22657470703125	0.86212158203125	-15.41900634765625	1.861572265625
8.081	2.0213964843750003	0.4454736328125	9.13939453125	-5.10406494140625	-2.23541259765625	10.92529296875
8.092	-1.120869140625	-0.18441650390625	9.24717041015625	-7.94219970703125	7.415771484375	8.453369140625
8.102	0.45744873046875	-0.086220703125	8.75379638671875	1.59454345703125	0.61798095703125	-2.349853515625
8.114	-0.1580712890625	-0.067060546875	9.60642333984375	9.81903076171875	18.57757568359375	-2.52532958984375
8.123	1.9591259765625002	0.07903564453125	8.4687890625	0.6561279296875	7.232666015625	0.48065185546875
8.132	0.7424560546875001	0.05748046875	9.357341308593751	-0.43487548828125	13.1378173828125	5.2642822265625
8.142	-2.0549267578125	0.06466552734375	10.32492919921875	0.75531005859375	-6.41632080078125	0.25177001953125
8.152	1.120869140625	0.10777587890625001	9.11304931640625	2.9754638671875	7.25555419921875	0.02288818359375
8.162	0.5125341796875	0.51492919921875	9.55852294921875	-1.80816650390625	8.8958740234375	0.38909912109375
8.172	-1.47772705078125	0.4071533203125	11.12965576171875	-2.2735595703125	-5.76019287109375	1.25885009765625
8.182	2.1411474609375003	-0.36643798828125	8.67236572265625	0.05340576171875	-8.7432861328125	0.946044921875
8.193	1.88967041015625	0.36643798828125	8.7993017578125	-0.640869140625	17.70782470703125	-1.76239013671875
8.204	-2.6393115234375	0.14609619140625002	11.498488769531251	-3.0364990234375	-18.31817626953125	0.16021728515625
8.214	2.3303540039062502	-0.2442919921875	8.976533203125001	-1.434326171875	11.4898681640625	-2.66265869140625
8.225	-0.7903564453125	-0.5604345703125	10.65065185546875	0.00762939453125	-2.105712890625	-5.5694580078125
8.236	-1.7962646484375	-0.07903564453125	7.6257421875	2.25830078125	25.0396728515625	-6.24847412109375
8.247	-2.14833251953125	-0.4981640625	11.524833984375	1.5411376953125	-24.84893798828125	-3.45611572265625
8.257	4.05955810546875	-0.29458740234375	5.7911572265625	1.9073486328125	33.8287353515625	-5.01251220703125
8.268	-4.49066162109375	-0.33769775390625	12.2960302734375	-1.27410888671875	-0.41961669921875	-1.22833251953125
8.279	1.4250366210937502	0.40475830078125	8.5454296875	-1.25885009765625	-5.0811767578125	-4.35638427734375
8.29	0.814306640625	-0.6179150390625	9.01245849609375	-0.31280517578125	5.6610107421875	-4.09698486328125
8.301	-2.90515869140625	-0.20357666015625	11.00032470703125	-1.24359130859375	-2.55584716796875	-6.53076171875
8.311	1.43940673828125	-0.36643798828125	8.4639990234375	0.1068115234375	-4.34112548828125	-4.98199462890625
8.322	0.08861572265625	0.028740234375	9.3262060546875	-1.16729736328125	8.6517333984375	-6.7291259765625
8.332	0.17244140625	-0.36643798828125	9.40763671875	-0.823974609375	-8.38470458984375	-5.88226318359375
8.343	-0.19639160156250002	-0.42870849609375	8.8903125	-0.6866455078125	6.44683837890625	-4.8675537109375
8.354	-0.9580078125	-0.19878662109375	8.94060791015625	-3.02886962890625	-10.73455810546875	-2.410888671875
8.365	-2.2608984375000003	-0.05748046875	11.275751953125	0.37384033203125	-9.490966796875	-7.2479248046875
8.376	3.1087353515625002	-0.24189697265625001	6.8593359375	-0.95367431640625	6.28662109375	-4.150390625
8.386	-0.469423828125	-0.086220703125	10.85662353515625	-2.685546875	-2.9754638671875	0.38909912109375
8.396	0.3879931640625	-0.20357666015625	9.515412597656251	-1.2359619140625	-19.46258544921875	-1.678466796875
8.408	-0.55564453125	-0.34248779296875004	10.0830322265625	-1.22833251953125	2.593994140625	-0.457763671875
8.418	-0.7807763671875	-0.23231689453125	10.81351318359375	-0.49591064453125	-16.29638671875	0.87738037109375
8.428	1.60705810546875	-0.316142578125	8.4352587890625	1.67083740234375	8.6212158203125	1.59454345703125
8.438	-0.30416748046875003	0.30416748046875003	10.406359863281251	0.75531005859375	-4.638671875	3.05938720703125
8.448	0.63947021484375	0.028740234375	9.61600341796875	0.6103515625	2.13623046875	1.556396484375
8.458	-0.11017089843750001	0.026345214843750003	9.912985839843751	0.40435791015625	-2.7618408203125	5.05828857421875
8.468	0.65384033203125	-0.03113525390625	8.64841552734375	-0.396728515625	12.847900390625	6.53839111328125
8.478	-1.32923583984375	0.0383203125	12.12119384765625	-0.6866455078125	-11.25335693359375	8.73565673828125
8.488	2.7590625	-0.17004638671875	7.743098144531251	0.5035400390625	5.340576171875	7.3699951171875
8.498	0.124541015625	-0.00239501953125	8.784931640625	1.617431640625	14.47296142578125	12.84027099609375
8.508	-0.55324951171875	-0.16046630859375	10.46384033203125	-0.43487548828125	0.57220458984375	19.1650390625
8.519	-0.70892578125	0.11735595703125	10.86380859375	-0.7476806640625	-6.3934326171875	19.17266845703125
8.528	1.3915063476562501	0.00239501953125	9.177714843750001	0.030517578125	6.61468505859375	13.58795166015625
8.539	0.622705078125	-0.086220703125	9.4220068359375	-0.06103515625	8.30841064453125	7.9498291015625
8.549	-0.67060546875	-0.36404296875000003	9.580078125	0.3662109375	-9.05609130859375	4.75311279296875
8.559	1.24780517578125	-0.31374755859375003	8.00655029296875	-0.40435791015625	12.96234130859375	3.21197509765625
8.569	-0.31374755859375003	-0.28979736328125	10.674602050781251	-0.26702880859375	-4.8980712890625	3.265380859375
8.58	0.11256591796875001	-0.27303222656250004	10.2315234375	-0.19073486328125	-1.7852783203125	7.68280029296875
8.59	0.28500732421875	-0.16046630859375	9.2112451171875	1.36566162109375	8.03375244140625	4.89044189453125
8.601	-1.67890869140625	-0.4454736328125	10.164462890625	-0.40435791015625	-1.3275146484375	8.1939697265625
8.611	0.354462890625	-0.08382568359375	9.22801025390625	-1.617431640625	0.66375732421875	11.03973388671875
8.622	-0.12214599609375	0.09580078125000001	8.94779296875	-0.5340576171875	14.5721435546875	5.126953125
8.633	-2.0261865234375	-0.13172607421875002	11.445798339843751	-0.75531005859375	-19.92034912109375	-1.44195556640625
8.643	2.4189697265625	0.10298583984375001	8.48555419921875	0.12969970703125	10.8795166015625	-1.9989013671875
8.653	-1.829794921875	-0.01916015625	11.02427490234375	-1.373291015625	-9.2315673828125	-0.396728515625
8.664	1.983076171875	-0.02155517578125	8.29395263671875	0.518798828125	6.56890869140625	-3.12042236328125
8.674	-0.7520361328125	0.10059082031250001	10.332114257812501	-0.030517578125	14.65606689453125	-1.82342529296875
8.684	-1.1735595703125001	-0.01676513671875	10.02076171875	0.48065185546875	-3.27301025390625	1.80816650390625
8.694	0.7472460937500001	-0.08382568359375	9.52020263671875	0.67901611328125	3.04412841796875	8.50677490234375
8.705	0.19639160156250002	-0.162861328125	8.782536621093751	-0.274658203125	7.38525390625	12.298583984375
8.715	0.37362304687500003	-0.26345214843750003	9.59205322265625	-0.05340576171875	-4.913330078125	15.472412109375
8.725	0.6634204101562501	0.086220703125	9.68306396484375	-1.0833740234375	2.349853515625	14.18304443359375
8.735	-0.50055908203125	0.19878662109375	9.9249609375	0.35858154296875	4.70733642578125	10.55908203125
8.745	-1.73159912109375	0.026345214843750003	10.930869140625001	-1.41143798828125	-8.72039794921875	7.40814208984375
8.756	0.7280859375000001	-0.19399658203125	8.30832275390625	0.45013427734375	3.5552978515625	1.129150390625
8.766	1.81302978515625	-0.01676513671875	8.92623779296875	-0.60272216796875	14.62554931640625	2.15911865234375
8.776	-2.5866210937500003	-0.5053491210937501	11.110495605468751	0.396728515625	-5.14984130859375	0.81634521484375
8.786	0.661025390625	-0.22513183593750002	9.09867919921875	-1.7242431640625	4.26483154296875	-2.716064453125
8.797	-0.59396484375	-0.32572265625	10.17164794921875	0.60272216796875	-6.53076171875	-2.03704833984375
8.808	-0.1580712890625	-0.11256591796875001	10.255473632812501	-1.1444091796875	7.904052734375	-1.25885009765625
8.817	0.15088623046875002	0.0335302734375	9.522597656250001	-0.48828125	-4.61578369140625	3.73077392578125
8.827	-0.9627978515625001	0.1389111328125	10.7536376953125	0.335693359375	-9.1400146484375	1.48773193359375
8.839	1.676513671875	0.10059082031250001	9.09388916015625	-1.3427734375	-8.09478759765625	2.4871826171875
8.849	-0.9412426757812501	0.239501953125	11.924802246093751	-1.96075439453125	-4.18853759765625	2.5787353515625
8.86	1.2885205078125002	-0.1676513671875	9.31902099609375	-0.28228759765625	-7.68280029296875	-0.51116943359375
8.87	-0.43349853515625003	-0.335302734375	9.96567626953125	0.72479248046875	6.683349609375	-5.523681640625
8.88	1.81781982421875	0.09580078125000001	9.120234375	0.0	5.2490234375	-1.434326171875
8.891	-1.2981005859375	-0.7520361328125	9.4986474609375	-0.06103515625	13.60321044921875	-11.0931396484375
8.902	-2.069296875	-0.42152343750000004	9.59923828125	1.373291015625	-12.00103759765625	-4.76837158203125
8.912	-1.7459692382812502	-0.37122802734375004	10.1117724609375	1.129150390625	8.9874267578125	-0.52642822265625
8.924	0.12693603515625002	-0.3975732421875	9.57289306640625	-1.31988525390625	-7.7056884765625	-5.37109375
8.934	0.44307861328125003	-0.8286767578125	7.07249267578125	2.95257568359375	19.38629150390625	-2.40325927734375
8.944	-1.49209716796875	-0.05748046875	10.008786621093751	2.99835205078125	5.62286376953125	-0.9002685546875
8.955	-0.56282958984375	-0.25387207031250003	9.702224121093751	1.68609619140625	3.9215087890625	-4.1046142578125
8.966	0.1580712890625	-0.06466552734375	9.3118359375	1.3885498046875	-4.4097900390625	-3.692626953125
8.976	0.65863037109375	0.124541015625	10.00399658203125	1.007080078125	4.70733642578125	-3.5400390625
8.986	-0.7520361328125	-0.3496728515625	9.75251953125	0.2899169921875	-2.40325927734375	1.79290771484375
8.996	-1.4418017578125	-0.34727783203125	11.007509765625	-0.69427490234375	-15.3350830078125	-0.5035400390625
9.008	0.8071215820312501	-0.01676513671875	9.27112060546875	1.373291015625	7.83538818359375	-3.77655029296875
9.019	-0.73048095703125	-0.076640625	10.48300048828125	-0.96893310546875	-7.568359375	-6.26373291015625
9.029	0.71132080078125	0.30895751953125	10.571616210937501	-0.78582763671875	1.65557861328125	-4.57000732421875
9.038	-0.49097900390625004	-0.09580078125000001	10.32971923828125	0.02288818359375	0.579833984375	-6.195068359375
9.051	-2.078876953125	-0.4167333984375	10.528505859375	-1.71661376953125	-16.09039306640625	-8.84246826171875
9.061	2.3303540039062502	-0.00718505859375	8.38975341796875	-1.708984375	14.5721435546875	-9.1094970703125
9.072	-1.504072265625	0.00239501953125	10.68897216796875	-1.21307373046875	-8.81195068359375	-8.78143310546875
9.083	2.7494824218750002	-0.37601806640625	8.32269287109375	-1.9989013671875	13.214111328125	-11.19232177734375
9.094	-0.5987548828125	0.30416748046875003	10.705737304687501	-0.98419189453125	-0.69427490234375	-7.97271728515625
9.105	-0.35206787109375004	-0.83586181640625	9.16573974609375	0.823974609375	-7.45391845703125	-5.47027587890625
9.116	-1.0394384765625	-0.28979736328125	9.896220703125001	-1.8768310546875	2.03704833984375	-2.29644775390625
9.126	-0.354462890625	0.22752685546875	10.739267578125	2.227783203125	-15.0299072265625	-3.23486328125
9.138	0.9675878906250001	-0.8837622070312501	7.5443115234375	-1.495361328125	16.56341552734375	-5.43212890625
9.149	-2.3327490234375	0.15088623046875002	12.231364746093751	0.1373291015625	-15.655517578125	-8.67462158203125
9.159	0.28979736328125	-0.6514453125	8.954978027343751	1.678466796875	-3.4637451171875	-10.955810546875
9.17	-1.2334350585937501	-0.47660888671875	10.14290771484375	-1.38092041015625	0.19073486328125	-10.47515869140625
9.182	0.8957373046875	-0.354462890625	9.156159667968751	-1.82342529296875	-9.17816162109375	-5.5694580078125
9.192	0.28979736328125	0.37122802734375004	9.568103027343751	1.99127197265625	7.32421875	-5.05828857421875
9.202	-0.3975732421875	-0.48139892578125004	10.315349121093751	0.48065185546875	-1.800537109375	-6.77490234375
9.212	0.6634204101562501	-0.41194335937500004	9.06035888671875	-0.18310546875	6.4544677734375	-4.76837158203125
9.223	-0.20118164062500002	-0.5891748046875	8.67955078125	1.0528564453125	4.69970703125	-5.08880615234375
9.234	-0.9005273437500001	-0.77838134765625	10.1979931640625	2.81524658203125	-4.08172607421875	-3.6468505859375
9.245	1.1088940429687502	-0.929267578125	8.842412109375001	2.18963623046875	8.23974609375	-1.65557861328125
9.255	-0.11735595703125	-0.21794677734375	10.21475830078125	6.5460205078125	3.41033935546875	-3.2501220703125
9.266	-0.18202148437500001	-0.22513183593750002	10.53090087890625	6.439208984375	-6.5765380859375	-0.38909912109375
9.276	1.0202783203125	0.1676513671875	10.08063720703125	-1.312255859375	1.617431640625	2.34222412109375
9.286	0.5245092773437501	-0.44786865234375	9.7956298828125	1.8463134765625	-8.11004638671875	-1.6326904296875
9.297	1.8010546875000002	-0.77359130859375	7.575446777343751	-0.14495849609375	15.05279541015625	-5.43212890625
9.309	-2.2656884765625	-0.85502197265625	10.720107421875001	0.90789794921875	-14.0533447265625	-4.4403076171875
9.32	1.7890795898437502	-0.41194335937500004	9.177714843750001	2.03704833984375	9.65118408203125	-6.23321533203125
9.33	-0.7711962890625	-0.48618896484375	10.621911621093751	3.2196044921875	-2.70843505859375	-4.38690185546875
9.34	0.1676513671875	-0.47900390625	10.32971923828125	-2.8076171875	3.50189208984375	-2.8076171875
9.352	-0.3879931640625	-0.79754150390625	10.480605468750001	-4.6844482421875	-3.47137451171875	-2.08282470703125
9.363	1.005908203125	-0.6682104492187501	8.94779296875	-1.52587890625	7.68280029296875	-2.58636474609375
9.373	-0.51732421875	0.4742138671875	10.298583984375	0.2593994140625	-7.7667236328125	-1.71661376953125
9.384	0.43349853515625003	-0.871787109375	10.540480957031251	-4.34112548828125	4.5928955078125	2.838134765625
9.395	-1.23822509765625	-0.06466552734375	10.37761962890625	0.90789794921875	-2.95257568359375	-0.6866455078125
9.404	1.09452392578125	-0.46223876953125004	9.18010986328125	0.1678466796875	7.354736328125	0.2593994140625
9.415	-0.59635986328125	-0.08861572265625	10.049501953125	-1.85394287109375	8.97979736328125	0.18310546875
9.426	-1.68369873046875	-0.5484594726562501	10.58838134765625	-2.46429443359375	-23.2086181640625	-0.8544921875
9.437	2.212998046875	0.3592529296875	8.384963378906251	-1.1749267578125	22.14813232421875	0.08392333984375
9.447	-1.3867163085937502	-0.45026367187500005	10.248288574218751	-0.6103515625	-10.87188720703125	4.09698486328125
9.457	0.8286767578125	0.8286767578125	9.551337890625	0.64849853515625	4.5623779296875	3.30352783203125
9.468	-0.8382568359375	-0.6251000976562501	11.218271484375	2.14385986328125	16.17431640625	2.9449462890625
9.478	0.795146484375	0.22273681640625	7.8939843750000005	1.18255615234375	-0.396728515625	1.434326171875
9.488	0.689765625	0.01916015625	9.85550537109375	-2.044677734375	2.46429443359375	3.45611572265625
9.498	0.7807763671875	-0.1580712890625	9.378896484375	2.32696533203125	4.4708251953125	6.30950927734375
9.508	-0.44307861328125003	0.09580078125000001	10.14769775390625	-3.265380859375	-5.62286376953125	8.41522216796875
9.519	-0.01676513671875	1.4465917968750002	11.033854980468751	1.35040283203125	5.57708740234375	9.002685546875
9.529	1.1927197265625	0.11017089843750001	8.789721679687501	-0.6561279296875	-0.67901611328125	10.07843017578125
9.539	0.661025390625	0.40475830078125	9.972861328125001	0.52642822265625	7.30133056640625	12.15362548828125
9.549	-0.6370751953125	-0.143701171875	10.36564453125	0.66375732421875	1.86920166015625	13.87786865234375
9.559	1.6645385742187502	0.0335302734375	9.03161865234375	0.87738037109375	6.55364990234375	14.48822021484375
9.57	-0.1580712890625	-0.3879931640625	9.469907226562501	0.08392333984375	14.96124267578125	11.61956787109375
9.58	-0.97477294921875	-0.28979736328125	9.874665527343751	-0.54168701171875	-7.2784423828125	8.5906982421875
9.59	-0.20357666015625	0.32332763671875003	9.3453662109375	-0.152587890625	1.7547607421875	8.8653564453125
9.602	-0.98914306640625	-0.79275146484375	10.42552001953125	-0.69427490234375	-5.4779052734375	9.17816162109375
9.612	0.7137158203125	0.052690429687500005	10.32971923828125	-0.64849853515625	-1.3427734375	8.61358642578125
9.622	0.16525634765625	0.9843530273437501	9.41961181640625	-3.11279296875	2.37274169921875	11.0015869140625
9.632	0.9532177734375	0.43110351562500004	9.374106445312501	-2.37274169921875	4.78363037109375	8.52203369140625
9.645	-3.2859667968750004	-1.580712890625	11.486513671875	-3.19671630859375	-17.76885986328125	8.39996337890625
9.655	2.8165429687500003	-0.1149609375	7.58023681640625	-3.50189208984375	20.04241943359375	0.95367431640625
9.666	-1.08973388671875	0.7879614257812501	10.839858398437501	-1.36566162109375	-9.94110107421875	2.4871826171875
9.676	1.81781982421875	0.3305126953125	8.8280419921875	-2.838134765625	13.7481689453125	1.8463134765625
9.688	-0.12693603515625002	-0.73048095703125	9.09388916015625	-1.28936767578125	-1.56402587890625	2.96783447265625
9.697	-0.045505371093750004	0.7232958984375001	10.50216064453125	0.25177001953125	0.83160400390625	2.349853515625
9.708	0.83107177734375	-0.3448828125	9.074729003906251	-1.312255859375	13.16070556640625	-0.091552734375
9.719	-1.1064990234375	-0.42391845703125003	11.177556152343751	-1.8463134765625	-12.77923583984375	-1.89208984375
9.73	2.1507275390625002	0.50055908203125	8.67236572265625	1.007080078125	12.38250732421875	2.73895263671875
9.74	-1.10410400390625	0.11735595703125	10.511740722656251	-1.6021728515625	6.21795654296875	2.6092529296875
9.75	-0.85023193359375	0.46223876953125004	10.45426025390625	1.0528564453125	-4.6539306640625	1.27410888671875
9.76	0.60114990234375	1.149609375	9.67587890625	-1.983642578125	2.471923828125	-0.732421875
9.769	0.45265869140625004	0.03592529296875	9.733359375000001	-0.3814697265625	-0.08392333984375	2.777099609375
9.781	-0.61072998046875	0.20357666015625	10.7823779296875	-1.5869140625	-7.36236572265625	3.753662109375
9.791	6.052214355468751	-1.6262182617187502	5.625900878906251	5.950927734375	25.07781982421875	2.11334228515625
9.802	-3.91585693359375	0.65863037109375	12.981005859375001	-1.97601318359375	-0.09918212890625	6.34765625
9.812	0.69695068359375	-0.03113525390625	9.82676513671875	1.5869140625	-13.5498046875	6.4239501953125
9.822	0.29937744140625	0.21794677734375	10.25786865234375	-0.08392333984375	15.90728759765625	6.7291259765625
9.832	-0.21315673828125	0.62989013671875	10.547666015625001	0.49591064453125	2.17437744140625	7.02667236328125
9.843	1.47772705078125	-0.7448510742187501	9.433981933593751	1.52587890625	-2.197265625	8.53729248046875
9.853	0.47900390625	1.7890795898437502	9.8722705078125	-0.18310546875	8.880615234375	8.01849365234375
9.864	-0.39517822265625	-0.20597167968750002	10.712922363281251	0.5645751953125	-13.824462890625	9.94873046875
9.874	1.312470703125	0.83586181640625	8.7705615234375	-0.51116943359375	4.52423095703125	8.209228515625
9.884	0.01916015625	-0.699345703125	9.96088623046875	0.06103515625	-1.21307373046875	12.8326416015625
9.895	-0.24908203125	0.15328125	9.7956298828125	-1.2054443359375	-9.765625	8.85009765625
9.905	0.51732421875	0.56282958984375	9.5465478515625	-0.8087158203125	-0.06866455078125	8.8958740234375
9.916	-1.5663427734375002	0.5125341796875	10.360854492187501	0.335693359375	-9.34600830078125	6.4849853515625
9.926	0.8214916992187501	0.65384033203125	9.2351953125	1.03759765625	-7.080078125	1.80816650390625
9.936	1.235830078125	-0.77838134765625	9.381291503906251	-0.6561279296875	7.19451904296875	4.06646728515625
9.947	-0.24189697265625001	0.70174072265625	10.585986328125001	0.26702880859375	-1.57928466796875	0.93841552734375
9.957	0.8214916992187501	-0.12693603515625002	9.18489990234375	-0.95367431640625	5.4473876953125	-3.16619873046875
9.967	0.9436376953125001	0.09580078125000001	9.395661621093751	-0.64849853515625	-4.5013427734375	0.8697509765625
9.977	0.6849755859375001	0.3496728515625	9.477092285156251	-1.2054443359375	16.632080078125	0.72479248046875
9.989	-1.89446044921875	-0.28500732421875	11.26856689453125	-1.64031982421875	-17.90618896484375	2.06756591796875
9.999	2.6105712890625	0.775986328125	7.982600097656251	-0.6256103515625	12.20703125	-2.25067138671875
10.009	-2.14354248046875	0.17244140625	11.47453857421875	-0.54931640625	1.953125	1.007080078125
10.02	-0.9675878906250001	0.023950195312500002	10.89015380859375	-1.2359619140625	-17.547607421875	-0.17547607421875
10.032	1.1687695312500002	0.60114990234375	8.813671875	-0.091552734375	14.13726806640625	-2.6092529296875
10.043	-1.9950512695312501	0.93166259765625	11.326047363281251	-1.312255859375	-14.404296875	-3.1890869140625
10.053	0.4742138671875	0.31374755859375003	9.27112060546875	0.48828125	12.06207275390625	-0.4119873046875
10.063	-1.005908203125	0.36404296875000003	10.873388671875	1.3427734375	-2.31170654296875	-0.61798095703125
10.074	1.561552734375	-0.5029541015625	9.237590332031251	-2.8839111328125	1.8768310546875	3.7078857421875
10.085	-0.9867480468750001	0.833466796875	10.40396484375	1.4495849609375	1.77001953125	6.70623779296875
10.095	0.8214916992187501	0.067060546875	9.02682861328125	-1.39617919921875	-6.76727294921875	1.39617919921875
10.106	0.21076171875000002	-0.70892578125	9.48667236328125	-3.62396240234375	-5.3558349609375	-0.79345703125
10.118	-1.3699511718750002	0.9268725585937501	10.226733398437501	0.9613037109375	-8.11004638671875	-1.25885009765625
10.128	-0.052690429687500005	0.40236328125000004	9.6183984375	0.75531005859375	10.20050048828125	0.95367431640625
10.138	-2.1698876953125	0.6466552734375001	10.7680078125	0.90789794921875	4.608154296875	2.66265869140625
10.148	-0.20357666015625	0.27542724609375	9.642348632812501	0.51116943359375	-1.0528564453125	1.5106201171875
10.159	0.5891748046875	-0.70174072265625	9.635163574218751	0.96893310546875	2.655029296875	4.638671875
10.17	-0.5891748046875	0.8406518554687501	9.8243701171875	-1.94549560546875	0.5645751953125	4.41741943359375
10.18	-0.9220825195312501	0.29458740234375	10.23870849609375	-0.02288818359375	-7.598876953125	2.75421142578125
10.19	1.4298266601562502	-0.1197509765625	8.92623779296875	-1.22833251953125	1.88446044921875	5.71441650390625
10.202	-0.73048095703125	0.9005273437500001	10.1692529296875	-0.1678466796875	-0.5340576171875	2.57110595703125
10.211	0.73527099609375	0.023950195312500002	9.41961181640625	0.6103515625	-16.0675048828125	4.7760009765625
10.222	1.8058447265625002	0.54366943359375	8.8759423828125	-1.800537109375	14.83154296875	1.373291015625
10.233	-2.0166064453125	-0.0622705078125	11.3811328125	0.20599365234375	-16.632080078125	3.94439697265625
10.244	2.29921875	0.59156982421875	8.08319091796875	-0.55694580078125	11.5509033203125	1.953125
10.254	-2.212998046875	-0.076640625	11.697275390625	0.43487548828125	-3.05938720703125	3.814697265625
10.264	-0.26584716796875	0.7328759765625	9.57768310546875	-0.38909912109375	-8.2244873046875	0.00762939453125
10.274	0.32811767578125	0.30177246093750004	9.2495654296875	-0.49591064453125	20.6756591796875	-0.030517578125
10.286	-2.0549267578125	-0.20357666015625	11.3380224609375	0.1220703125	-9.2926025390625	5.72967529296875
10.296	1.8345849609375	-0.49097900390625004	9.09867919921875	-0.55694580078125	-2.2735595703125	4.26483154296875
10.306	-0.27063720703125	0.9675878906250001	9.656718750000001	-0.8544921875	12.6495361328125	0.23651123046875
10.318	0.36404296875000003	-0.85502197265625	9.9105908203125	-1.19781494140625	-10.955810546875	7.7362060546875
10.329	-0.5077441406250001	1.02746337890625	9.67827392578125	-1.190185546875	-3.97491455078125	-5.14984130859375
10.34	-0.03113525390625	-0.79754150390625	9.7668896484375	-1.36566162109375	1.678466796875	-1.678466796875
10.35	1.4849121093750002	-0.53408935546875	8.92623779296875	-0.48065185546875	7.16400146484375	1.94549560546875
10.36	-1.1567944335937501	0.0	10.65065185546875	-0.3814697265625	12.5732421875	4.08935546875
10.372	-0.73527099609375	-0.21315673828125	10.499765625	-0.08392333984375	-14.251708984375	4.9591064453125
10.383	1.2597802734375	-0.67060546875	9.2495654296875	-0.08392333984375	17.09747314453125	0.22125244140625
10.394	-0.9723779296875	-0.4981640625	10.8590185546875	-1.04522705078125	-15.2130126953125	-0.213623046875
10.404	2.5171655273437503	0.6825805664062501	7.85326904296875	-1.190185546875	25.3143310546875	1.19781494140625
10.416	-0.61072998046875	-0.14609619140625002	10.6578369140625	0.95367431640625	-13.9007568359375	5.4931640625
10.427	-1.4034814453125	0.65863037109375	10.3416943359375	-0.030517578125	7.92694091796875	4.15802001953125
10.437	-0.3400927734375	0.19639160156250002	9.881850585937501	0.91552734375	-14.68658447265625	8.90350341796875
10.448	-2.596201171875	1.30049560546875	11.0745703125	-1.74713134765625	11.42120361328125	3.3721923828125
10.46	1.39869140625	-0.613125	8.87354736328125	-0.58746337890625	-15.19775390625	7.63702392578125
10.471	0.75443115234375	-0.1580712890625	9.448352050781251	-0.91552734375	19.90509033203125	6.4239501953125
10.482	-1.5160473632812501	0.29937744140625	10.70334228515625	-1.27410888671875	-15.02227783203125	8.4686279296875
10.493	0.99393310546875	-0.5053491210937501	9.6615087890625	-0.09918212890625	6.4849853515625	12.94708251953125
10.504	-1.20948486328125	0.39517822265625	10.59556640625	2.35748291015625	4.974365234375	2.96783447265625
10.514	1.09931396484375	-0.61552001953125	9.5465478515625	1.1138916015625	-0.1220703125	3.23486328125
10.525	0.35685791015625	0.1580712890625	9.69743408203125	-2.09808349609375	-7.8125	4.486083984375
10.536	1.3076806640625	-0.79275146484375	9.551337890625	-1.7547607421875	14.16015625	12.70294189453125
10.548	-1.6741186523437501	-0.07903564453125	10.930869140625001	-0.35858154296875	-10.528564453125	6.05010986328125
10.558	2.3734643554687502	-0.5748046875	8.504714355468751	0.5950927734375	14.58740234375	5.55419921875
10.568	-2.2273681640625003	-0.12693603515625002	11.333232421875001	0.70953369140625	-1.3275146484375	5.1422119140625
10.578	1.149609375	0.09819580078125001	8.990903320312501	0.18310546875	4.4708251953125	5.2947998046875
10.589	0.4071533203125	-0.5029541015625	10.10458740234375	-0.1068115234375	3.85284423828125	4.7454833984375
10.6	-2.05732177734375	0.45265869140625004	11.179951171875	0.46539306640625	-16.9525146484375	12.18414306640625
10.61	3.92543701171875	-0.39278320312500004	7.79099853515625	2.20489501953125	26.1993408203125	8.819580078125
10.621	-3.3314721679687502	0.65384033203125	12.19304443359375	2.63214111328125	-10.1318359375	11.3372802734375
10.633	1.46335693359375	0.15328125	8.871152343750001	-0.84686279296875	6.7901611328125	9.2620849609375
10.642	-2.3519091796875	0.9436376953125001	10.621911621093751	0.0457763671875	0.38909912109375	4.49371337890625
10.653	0.076640625	-0.5676196289062501	9.9968115234375	-0.030517578125	-22.613525390625	10.38360595703125
10.663	2.33514404296875	-0.3975732421875	8.72505615234375	0.23651123046875	29.33502197265625	7.50732421875
10.675	-0.51492919921875	0.4358935546875	11.35957763671875	-0.5950927734375	-7.66754150390625	16.09039306640625
10.685	2.7255322265625	0.795146484375	7.51796630859375	0.579833984375	16.998291015625	13.2293701171875
10.696	-3.9110668945312503	-0.02155517578125	12.84927978515625	0.5645751953125	-11.36016845703125	8.72802734375
10.706	-0.12693603515625002	0.661025390625	10.02076171875	0.95367431640625	-7.7972412109375	5.95855712890625
10.717	-0.29458740234375	0.14609619140625002	9.9297509765625	2.25830078125	3.31878662109375	-0.26702880859375
10.727	0.067060546875	-0.296982421875	9.398056640625	1.33514404296875	3.05938720703125	9.98687744140625
10.737	-0.2442919921875	0.30895751953125	10.135722656250001	1.31988525390625	0.79345703125	3.74603271484375
10.747	0.009580078125	0.277822265625	9.374106445312501	-1.77764892578125	10.01739501953125	2.05230712890625
10.759	-3.36979248046875	0.086220703125	12.336745605468751	0.52642822265625	-16.02935791015625	1.86920166015625
10.769	2.23455322265625	0.89334228515625	7.8604541015625005	-1.33514404296875	1.82342529296875	7.293701171875
10.779	-0.02155517578125	0.143701171875	10.427915039062501	-2.4261474609375	0.98419189453125	0.37384033203125
10.789	-0.0622705078125	0.7664062500000001	9.98244140625	-1.3427734375	2.74658203125	4.5013427734375
10.8	0.7855664062500001	0.01916015625	10.047106933593751	-0.8544921875	-2.12860107421875	6.195068359375
10.81	-0.1580712890625	0.1197509765625	9.72617431640625	0.75531005859375	-2.410888671875	1.5869140625
10.82	1.4250366210937502	0.39038818359375	9.029223632812501	1.04522705078125	4.33349609375	-1.068115234375
10.831	-1.6334033203125	0.37601806640625	11.170371093750001	-0.23651123046875	30.70831298828125	-4.72259521484375
10.843	-3.83921630859375	-0.14609619140625002	13.436059570312501	-0.3662109375	-49.46136474609375	7.20977783203125
10.854	-1.21906494140625	0.948427734375	9.666298828125	2.84576416015625	41.72515869140625	3.33404541015625
10.865	-1.0705737304687502	0.13172607421875002	10.300979003906251	-0.86212158203125	-37.8875732421875	-3.6773681640625
10.876	1.76512939453125	0.75443115234375	8.145461425781251	-1.68609619140625	30.21240234375	-0.8697509765625
