Time	ax	ay	az	gx\gy\gz
0.014	0.05987548828125	-0.011975097656250001	9.78365478515625	-0.3204345703125	-0.43487548828125	0.25177001953125
0.022	0.08382568359375	-0.01916015625	9.723779296875	-0.152587890625	0.1983642578125	0.08392333984375
0.031	0.22513183593750002	0.026345214843750003	9.81718505859375	-0.3204345703125	0.55694580078125	0.06866455078125
0.039	0.14609619140625002	-0.0431103515625	9.836345214843751	-0.213623046875	0.66375732421875	0.03814697265625
0.048	0.13412109375	-0.067060546875	9.77886474609375	-0.28228759765625	0.457763671875	0.05340576171875
0.056	0.067060546875	-0.1293310546875	9.78844482421875	-0.19073486328125	0.49591064453125	0.1373291015625
0.065	-0.00718505859375	-0.10059082031250001	9.87945556640625	-0.30517578125	-0.2288818359375	0.1068115234375
0.074	0.02155517578125	-0.06466552734375	9.86987548828125	-0.1678466796875	-0.6103515625	0.152587890625
0.082	0.12693603515625002	-0.00239501953125	9.78844482421875	-0.08392333984375	-0.75531005859375	0.0457763671875
0.091	0.143701171875	0.00239501953125	9.733359375000001	-0.54168701171875	-0.396728515625	0.11444091796875
0.099	0.18441650390625	-0.00239501953125	9.754914550781251	-0.31280517578125	0.152587890625	0.18310546875
0.108	0.1772314453125	0.00718505859375	9.821975097656251	-0.244140625	-0.11444091796875	0.06103515625
0.116	0.16525634765625	0.02155517578125	9.704619140625	-0.1983642578125	0.09918212890625	0.18310546875
0.124	0.10059082031250001	-0.12214599609375	9.742939453125	-0.335693359375	0.43487548828125	0.06866455078125
0.134	0.124541015625	-0.076640625	9.793234863281251	-0.2593994140625	0.46539306640625	-0.0152587890625
0.143	0.04071533203125	-0.02155517578125	9.819580078125	-0.14495849609375	-0.4425048828125	0.152587890625
0.152	0.03592529296875	-0.050295410156250005	9.8339501953125	-0.3204345703125	-0.6103515625	0.12969970703125
0.16	0.20597167968750002	-0.03113525390625	9.81	-0.274658203125	-0.42724609375	0.09918212890625
0.169	0.16525634765625	-0.06466552734375	9.78844482421875	-0.1678466796875	-0.02288818359375	0.0
0.179	0.055085449218750006	-0.011975097656250001	9.934541015625001	-0.3204345703125	0.030517578125	0.091552734375
0.187	0.052690429687500005	-0.026345214843750003	9.819580078125	-0.30517578125	-0.45013427734375	0.2288818359375
0.195	0.0431103515625	-0.052690429687500005	9.821975097656251	-0.11444091796875	-0.37384033203125	0.06866455078125
0.204	0.067060546875	-0.10298583984375001	9.807604980468751	-0.1373291015625	-0.1678466796875	0.091552734375
0.214	0.143701171875	-0.04071533203125	9.86987548828125	-0.12969970703125	-0.22125244140625	0.14495849609375
0.223	0.09101074218750001	-0.047900390625000004	9.69264404296875	-0.26702880859375	0.25177001953125	0.213623046875
0.232	0.09101074218750001	-0.05748046875	9.90819580078125	-0.274658203125	0.09918212890625	0.12969970703125
0.24	0.0047900390625	-0.0335302734375	9.723779296875	-0.396728515625	-0.55694580078125	0.25177001953125
0.248	0.028740234375	-0.05748046875	9.82676513671875	-0.09918212890625	-0.66375732421875	0.20599365234375
0.258	0.076640625	-0.01916015625	9.83155517578125	-0.3509521484375	-0.75531005859375	0.2593994140625
0.267	0.1293310546875	-0.0622705078125	9.6998291015625	-0.5645751953125	-0.3662109375	0.14495849609375
0.276	0.1149609375	-0.047900390625000004	9.81718505859375	-0.4425048828125	0.152587890625	0.1678466796875
0.285	0.07424560546875	-0.03592529296875	9.78844482421875	-0.45013427734375	-0.03814697265625	0.2288818359375
0.293	-0.0047900390625	-0.076640625	9.94412109375	-0.0762939453125	-0.61798095703125	-0.02288818359375
0.303	0.011975097656250001	-0.0814306640625	9.836345214843751	-0.03814697265625	-1.2969970703125	0.1373291015625
0.312	0.16525634765625	0.00239501953125	9.73575439453125	-0.2288818359375	-0.518798828125	0.00762939453125
0.32	0.3305126953125	-0.00239501953125	9.793234863281251	-0.11444091796875	0.48065185546875	0.20599365234375
0.329	0.28500732421875	-0.047900390625000004	9.77407470703125	-0.152587890625	1.45721435546875	0.152587890625
0.338	0.124541015625	-0.050295410156250005	9.85550537109375	-0.091552734375	0.9765625	0.17547607421875
0.348	-0.0383203125	-0.06945556640625	9.90819580078125	-0.11444091796875	-0.4425048828125	0.09918212890625
0.357	0.0718505859375	0.0	9.81	0.0152587890625	-1.312255859375	0.14495849609375
0.365	0.03113525390625	0.01676513671875	9.877060546875	-0.1068115234375	-0.9613037109375	0.05340576171875
0.373	0.22273681640625	-0.05748046875	9.6902490234375	-0.1373291015625	-0.152587890625	0.03814697265625
0.382	0.27542724609375	-0.050295410156250005	9.67587890625	0.06103515625	0.6561279296875	0.03814697265625
0.391	0.28261230468750004	-0.10298583984375001	9.70701416015625	-0.2899169921875	0.518798828125	0.152587890625
0.4	0.11256591796875001	-0.047900390625000004	9.73096435546875	-0.213623046875	0.78582763671875	0.0762939453125
0.408	0.01676513671875	-0.0383203125	9.920170898437501	-0.31280517578125	0.20599365234375	0.152587890625
0.417	0.067060546875	0.0	9.73096435546875	0.0762939453125	-0.30517578125	0.0152587890625
0.425	-0.0622705078125	-0.09340576171875001	9.896220703125001	-0.0457763671875	-0.3509521484375	0.030517578125
0.435	0.050295410156250005	-0.0814306640625	9.8914306640625	-0.22125244140625	-0.48828125	0.19073486328125
0.443	0.10777587890625001	-0.01916015625	9.8243701171875	-0.3662109375	-0.06866455078125	-0.11444091796875
0.452	0.22752685546875	-0.045505371093750004	9.769284667968751	-0.244140625	0.29754638671875	0.17547607421875
0.461	0.12693603515625002	-0.07903564453125	9.85550537109375	-0.16021728515625	0.37384033203125	0.11444091796875
0.471	0.11256591796875001	-0.05748046875	9.81	-0.03814697265625	0.06866455078125	0.05340576171875
0.479	0.00239501953125	-0.11017089843750001	9.821975097656251	-0.3814697265625	0.4119873046875	0.06866455078125
0.487	-0.023950195312500002	-0.08382568359375	9.80281494140625	-0.12969970703125	0.20599365234375	0.0152587890625
0.495	0.028740234375	-0.052690429687500005	9.857900390625	0.06866455078125	-0.17547607421875	0.152587890625
0.504	0.08861572265625	-0.026345214843750003	9.8722705078125	-0.34332275390625	-0.3814697265625	0.11444091796875
0.514	0.162861328125	-0.01676513671875	9.762099609375001	-0.35858154296875	-0.274658203125	0.1678466796875
0.522	0.20836669921875	-0.07424560546875	9.73096435546875	-0.17547607421875	0.67901611328125	0.11444091796875
0.531	0.12214599609375	-0.07424560546875	9.857900390625	-0.335693359375	0.96893310546875	0.06866455078125
0.54	0.086220703125	-0.0622705078125	9.8052099609375	-0.29754638671875	0.1678466796875	0.16021728515625
0.549	0.055085449218750006	-0.03592529296875	9.81239501953125	-0.28228759765625	-0.7171630859375	0.05340576171875
0.559	0.124541015625	-0.01676513671875	9.8339501953125	-0.2899169921875	-0.8392333984375	-0.05340576171875
0.567	0.22034179687500002	-0.011975097656250001	9.814790039062501	0.02288818359375	0.152587890625	-0.03814697265625
0.576	0.10777587890625001	-0.12693603515625002	9.6615087890625	-0.17547607421875	-0.09918212890625	-0.091552734375
0.585	0.00239501953125	-0.15567626953125	9.90580078125	-0.396728515625	-0.31280517578125	0.20599365234375
0.595	-0.16525634765625	-0.10059082031250001	9.819580078125	-0.20599365234375	-1.2969970703125	0.5340576171875
0.604	0.03592529296875	-0.03113525390625	9.596843261718751	-0.49591064453125	0.06103515625	0.09918212890625
0.612	0.1389111328125	0.011975097656250001	9.63037353515625	-0.3509521484375	0.23651123046875	-0.06866455078125
0.621	0.26584716796875	-0.026345214843750003	9.819580078125	0.0	1.07574462890625	0.00762939453125
0.629	0.37362304687500003	-0.047900390625000004	9.889035644531251	-0.23651123046875	0.51116943359375	-0.030517578125
0.638	0.29458740234375	-0.052690429687500005	9.819580078125	-0.0762939453125	0.1983642578125	0.1373291015625
0.647	0.023950195312500002	-0.1389111328125	9.857900390625	0.0	0.06866455078125	-0.03814697265625
0.656	-0.14609619140625002	-0.11735595703125	9.88424560546875	-0.31280517578125	-0.244140625	0.11444091796875
0.665	-0.028740234375	-0.1484912109375	9.78365478515625	-0.09918212890625	-0.48065185546875	-0.1373291015625
0.674	0.20836669921875	-0.0814306640625	9.754914550781251	-0.22125244140625	0.17547607421875	0.152587890625
0.684	0.1676513671875	-0.023950195312500002	9.72617431640625	-0.05340576171875	0.335693359375	0.0457763671875
0.692	0.10298583984375001	0.0335302734375	9.6998291015625	-0.2288818359375	-0.23651123046875	0.2288818359375
0.7	0.050295410156250005	-0.02155517578125	9.65911376953125	-0.06866455078125	-0.5035400390625	0.06866455078125
0.709	0.01916015625	-0.028740234375	9.81	-0.2288818359375	-0.79345703125	0.030517578125
0.717	0.052690429687500005	-0.11735595703125	9.838740234375	-0.37384033203125	-0.80108642578125	0.0457763671875
0.728	0.06945556640625	-0.1772314453125	9.836345214843751	-0.28228759765625	-1.068115234375	0.16021728515625
0.737	0.12214599609375	-0.08382568359375	9.75970458984375	-0.3814697265625	-0.640869140625	0.08392333984375
0.746	0.17004638671875	-0.10298583984375001	9.754914550781251	0.23651123046875	0.12969970703125	0.213623046875
0.754	0.13651611328125002	-0.09101074218750001	9.723779296875	-0.29754638671875	0.34332275390625	0.1220703125
0.763	0.22752685546875	-0.00718505859375	9.77886474609375	-0.14495849609375	0.20599365234375	-0.1220703125
0.773	0.1389111328125	0.01916015625	9.79802490234375	-0.25177001953125	0.08392333984375	0.08392333984375
0.781	0.023950195312500002	-0.01916015625	9.7285693359375	-0.18310546875	-0.45013427734375	-0.0152587890625
0.791	-0.0814306640625	-0.011975097656250001	9.72138427734375	-0.1068115234375	-0.48828125	-0.08392333984375
0.8	0.1580712890625	-0.0718505859375	9.6998291015625	-0.152587890625	0.0457763671875	0.2899169921875
0.808	0.14609619140625002	-0.10059082031250001	9.716594238281251	-0.152587890625	0.40435791015625	0.091552734375
0.818	0.22513183593750002	-0.047900390625000004	9.793234863281251	-0.26702880859375	0.18310546875	0.11444091796875
0.827	0.28500732421875	-0.06466552734375	9.9105908203125	-0.19073486328125	-0.09918212890625	0.16021728515625
0.836	0.17244140625	0.023950195312500002	9.819580078125	-0.08392333984375	-0.3814697265625	0.030517578125
0.844	0.17004638671875	-0.0143701171875	9.72138427734375	-0.3814697265625	-0.274658203125	0.06866455078125
0.854	0.1149609375	0.026345214843750003	9.78365478515625	-0.43487548828125	-0.22125244140625	0.14495849609375
0.863	0.11256591796875001	-0.011975097656250001	9.81239501953125	-0.17547607421875	-0.1373291015625	0.1068115234375
0.871	-0.03113525390625	-0.08861572265625	9.67587890625	-0.1373291015625	0.14495849609375	0.17547607421875
0.88	0.0335302734375	-0.01916015625	9.78844482421875	-0.1983642578125	0.213623046875	0.0457763671875
0.888	0.09580078125000001	-0.023950195312500002	9.769284667968751	-0.42724609375	0.1220703125	0.1678466796875
0.898	0.162861328125	-0.01676513671875	9.77886474609375	-0.34332275390625	-0.06103515625	0.0762939453125
0.907	0.24908203125	0.0	9.85550537109375	-0.22125244140625	0.06866455078125	0.22125244140625
0.915	0.17004638671875	-0.06466552734375	9.857900390625	-0.152587890625	-0.38909912109375	0.03814697265625
0.923	0.09101074218750001	-0.047900390625000004	9.84592529296875	-0.2899169921875	-0.18310546875	0.17547607421875
0.933	0.17244140625	-0.086220703125	9.776469726562501	-0.11444091796875	-0.09918212890625	0.1373291015625
0.942	0.10298583984375001	-0.08861572265625	9.72138427734375	-0.51116943359375	0.1373291015625	0.0762939453125
0.951	0.0814306640625	-0.08382568359375	9.7573095703125	-0.38909912109375	0.091552734375	0.1678466796875
0.96	0.10538085937500001	-0.00239501953125	9.800419921875001	-0.3509521484375	0.335693359375	0.22125244140625
0.969	0.10777587890625001	-0.050295410156250005	9.80281494140625	-0.2288818359375	0.22125244140625	0.03814697265625
0.977	0.076640625	-0.03113525390625	9.79802490234375	-0.1068115234375	0.08392333984375	0.05340576171875
0.986	0.11256591796875001	-0.052690429687500005	9.75012451171875	-0.26702880859375	0.19073486328125	-0.03814697265625
0.995	0.13412109375	-0.1197509765625	9.800419921875001	0.030517578125	0.3509521484375	0.11444091796875
1.003	0.07903564453125	-0.10538085937500001	9.7860498046875	0.0	0.579833984375	0.03814697265625
1.012	0.11017089843750001	-0.06945556640625	9.836345214843751	-0.22125244140625	0.244140625	0.05340576171875
1.021	0.19878662109375	-0.0335302734375	9.8052099609375	-0.34332275390625	-0.08392333984375	0.23651123046875
1.031	0.11017089843750001	0.0047900390625	9.7716796875	-0.22125244140625	0.37384033203125	0.0457763671875
1.039	0.09340576171875001	-0.047900390625000004	9.77407470703125	0.0	0.03814697265625	0.00762939453125
1.047	0.0814306640625	-0.028740234375	9.78844482421875	-0.1373291015625	0.030517578125	0.14495849609375
1.055	0.026345214843750003	-0.0431103515625	9.71419921875	-0.09918212890625	-0.1220703125	0.16021728515625
1.064	0.09340576171875001	-0.10298583984375001	9.8052099609375	-0.2899169921875	0.08392333984375	0.152587890625
1.074	0.076640625	-0.055085449218750006	9.75012451171875	-0.3662109375	0.09918212890625	0.091552734375
1.083	0.11017089843750001	-0.067060546875	9.77886474609375	0.1220703125	0.03814697265625	0.213623046875
1.092	0.08861572265625	-0.06945556640625	9.877060546875	-0.18310546875	-0.0762939453125	0.0
1.101	0.13172607421875002	-0.0431103515625	9.80281494140625	-0.16021728515625	-0.02288818359375	0.1678466796875
1.111	0.19160156250000002	0.026345214843750003	9.800419921875001	-0.0762939453125	0.0762939453125	0.091552734375
1.12	0.14609619140625002	-0.023950195312500002	9.716594238281251	-0.274658203125	0.06103515625	0.0152587890625
1.128	0.01916015625	-0.0143701171875	9.7860498046875	-0.16021728515625	0.17547607421875	-0.14495849609375
1.137	0.03592529296875	-0.02155517578125	9.71419921875	-0.14495849609375	0.08392333984375	-0.06103515625
1.145	0.0047900390625	-0.07903564453125	9.74533447265625	-0.4425048828125	-0.06103515625	0.11444091796875
1.155	0.10298583984375001	-0.09340576171875001	9.88424560546875	-0.152587890625	-0.31280517578125	0.06103515625
1.164	0.1293310546875	-0.0383203125	9.7956298828125	-0.2899169921875	-0.17547607421875	0.0152587890625
1.173	0.1484912109375	-0.0335302734375	9.807604980468751	-0.17547607421875	-0.06866455078125	0.1678466796875
1.182	0.17483642578125	-0.03113525390625	9.83155517578125	-0.14495849609375	0.02288818359375	0.14495849609375
1.191	0.05987548828125	-0.00718505859375	9.8435302734375	-0.3204345703125	-0.06866455078125	-0.16021728515625
1.201	0.1293310546875	-0.05748046875	9.6998291015625	-0.05340576171875	-0.0152587890625	-0.14495849609375
1.21	0.11256591796875001	-0.0718505859375	9.8243701171875	-0.19073486328125	-0.19073486328125	0.091552734375
1.219	0.15567626953125	-0.052690429687500005	9.77407470703125	-0.38909912109375	-0.08392333984375	-0.09918212890625
1.228	0.09580078125000001	-0.0383203125	9.723779296875	-0.2288818359375	0.1373291015625	0.19073486328125
1.238	0.0718505859375	-0.03592529296875	9.8052099609375	-0.30517578125	-0.19073486328125	0.11444091796875
1.247	0.11256591796875001	-0.0383203125	9.8243701171875	-0.26702880859375	-0.18310546875	0.03814697265625
1.256	0.028740234375	-0.023950195312500002	9.7189892578125	-0.19073486328125	-0.2288818359375	0.0152587890625
1.265	0.0814306640625	-0.11256591796875001	9.90340576171875	-0.16021728515625	-0.00762939453125	0.16021728515625
1.274	0.08861572265625	-0.0718505859375	9.7956298828125	-0.35858154296875	-0.20599365234375	0.0457763671875
1.284	0.10298583984375001	-0.06945556640625	9.8626904296875	-0.38909912109375	-0.17547607421875	0.05340576171875
1.293	0.055085449218750006	-0.045505371093750004	9.79083984375	-0.19073486328125	-0.12969970703125	0.00762939453125
1.302	0.10538085937500001	-0.050295410156250005	9.704619140625	-0.2288818359375	0.0152587890625	0.3509521484375
1.311	0.124541015625	-0.07903564453125	9.8914306640625	-0.28228759765625	-0.0457763671875	-0.03814697265625
1.32	0.11735595703125	-0.0622705078125	9.838740234375	-0.3814697265625	-0.12969970703125	0.00762939453125
1.33	0.1389111328125	0.01916015625	9.8435302734375	-0.32806396484375	-0.23651123046875	0.030517578125
1.339	0.0718505859375	0.0143701171875	9.7860498046875	-0.37384033203125	-0.335693359375	0.08392333984375
1.348	0.1293310546875	0.20836669921875	9.69264404296875	-0.23651123046875	-0.12969970703125	0.06866455078125
1.356	0.0622705078125	0.04071533203125	9.7716796875	-0.3204345703125	0.26702880859375	0.12969970703125
1.366	0.11256591796875001	-0.0622705078125	9.7860498046875	-0.4119873046875	-0.32806396484375	0.29754638671875
1.375	0.0718505859375	-0.0335302734375	9.77886474609375	0.08392333984375	-0.0457763671875	0.0457763671875
1.384	0.12693603515625002	-0.17483642578125	9.800419921875001	-0.06103515625	0.28228759765625	0.1220703125
1.393	0.05987548828125	-0.05748046875	9.79083984375	-0.1678466796875	0.25177001953125	0.16021728515625
1.402	0.0622705078125	-0.08861572265625	9.8722705078125	-0.26702880859375	0.08392333984375	0.11444091796875
1.412	0.09340576171875001	0.023950195312500002	9.80281494140625	-0.17547607421875	0.05340576171875	0.1678466796875
1.42	0.05987548828125	0.086220703125	9.814790039062501	-0.00762939453125	-0.00762939453125	-0.03814697265625
1.429	0.0814306640625	0.01676513671875	9.948911132812501	-0.40435791015625	-0.518798828125	0.08392333984375
1.438	0.10059082031250001	0.0814306640625	9.877060546875	0.12969970703125	0.274658203125	0.1983642578125
1.446	0.07903564453125	0.0383203125	9.93214599609375	-0.1068115234375	-0.12969970703125	0.091552734375
1.456	0.07424560546875	-0.047900390625000004	9.86987548828125	-0.18310546875	-0.38909912109375	0.16021728515625
1.465	0.13172607421875002	-0.050295410156250005	9.819580078125	-0.19073486328125	0.32806396484375	0.12969970703125
1.474	0.1580712890625	-0.067060546875	9.7381494140625	0.14495849609375	0.61798095703125	0.1220703125
1.483	0.0814306640625	0.04071533203125	9.762099609375001	0.03814697265625	1.24359130859375	0.19073486328125
1.492	0.0622705078125	0.15567626953125	9.836345214843751	-0.1068115234375	0.99945068359375	0.11444091796875
1.502	-0.026345214843750003	-0.18681152343750002	9.829160156250001	-0.2899169921875	0.70953369140625	0.12969970703125
1.511	0.0814306640625	-0.03113525390625	9.776469726562501	-0.3814697265625	0.6561279296875	0.1678466796875
1.52	0.0383203125	0.0718505859375	9.84113525390625	-0.20599365234375	-0.03814697265625	-0.11444091796875
1.529	0.067060546875	0.18920654296875	9.7956298828125	-0.274658203125	-1.0986328125	-0.00762939453125
1.539	0.15328125	0.11017089843750001	9.948911132812501	-0.43487548828125	-0.58746337890625	-0.1373291015625
1.549	0.086220703125	0.09819580078125001	9.800419921875001	-0.4730224609375	-1.03759765625	0.09918212890625
1.558	0.21794677734375	0.011975097656250001	9.781259765625	-0.17547607421875	-0.03814697265625	-0.0762939453125
1.567	0.1197509765625	0.10298583984375001	9.8052099609375	-0.49591064453125	-0.89263916015625	0.08392333984375
1.576	0.15567626953125	0.16046630859375	9.754914550781251	-0.7781982421875	-0.335693359375	-0.05340576171875
1.586	0.03592529296875	-0.0047900390625	9.920170898437501	-0.25177001953125	-0.0457763671875	0.1068115234375
1.595	-0.11017089843750001	0.06945556640625	9.953701171875	-0.12969970703125	-0.6866455078125	0.0457763671875
1.604	0.11017089843750001	-0.11017089843750001	9.8722705078125	-0.1983642578125	-0.54931640625	0.06866455078125
1.613	0.36164794921875004	0.0143701171875	9.5848681640625	0.0762939453125	1.27410888671875	0.2899169921875
1.623	0.3688330078125	-0.5700146484375	9.723779296875	0.03814697265625	1.54876708984375	0.2593994140625
1.632	0.14130615234375002	-0.3784130859375	9.747729492187501	-0.26702880859375	0.274658203125	0.16021728515625
1.641	0.0814306640625	-0.2442919921875	9.75970458984375	0.16021728515625	0.31280517578125	0.03814697265625
1.649	-0.05748046875	-0.44786865234375	9.82676513671875	-0.2593994140625	-0.05340576171875	0.11444091796875
1.659	0.16525634765625	-0.24668701171875002	9.800419921875001	-0.152587890625	0.3662109375	0.25177001953125
1.669	0.14609619140625002	-0.3688330078125	9.72617431640625	0.02288818359375	0.8697509765625	0.02288818359375
1.678	0.09819580078125001	-0.18441650390625	9.793234863281251	-0.14495849609375	0.86212158203125	0.1068115234375
1.687	0.047900390625000004	-0.11735595703125	9.8243701171875	-0.02288818359375	0.17547607421875	0.05340576171875
1.695	0.08382568359375	-0.14609619140625002	9.81239501953125	-0.1220703125	-0.5035400390625	0.26702880859375
1.705	0.13651611328125002	-0.10059082031250001	9.7381494140625	-0.3204345703125	-0.213623046875	0.1220703125
1.715	0.076640625	-0.028740234375	9.8052099609375	-0.28228759765625	-0.00762939453125	0.16021728515625
1.724	0.08382568359375	-0.05748046875	9.78844482421875	-0.19073486328125	0.1220703125	0.213623046875
1.733	0.0622705078125	0.01676513671875	9.82676513671875	-0.213623046875	-0.20599365234375	0.0
1.741	0.09101074218750001	-0.0431103515625	9.83155517578125	-0.274658203125	-0.244140625	0.030517578125
1.751	0.08861572265625	-0.028740234375	9.82676513671875	-0.20599365234375	-0.335693359375	0.23651123046875
1.76	0.0718505859375	-0.045505371093750004	9.84113525390625	0.17547607421875	-0.16021728515625	0.25177001953125
1.769	0.086220703125	-0.0383203125	9.733359375000001	-0.19073486328125	0.38909912109375	0.26702880859375
1.778	0.13651611328125002	-0.047900390625000004	9.80281494140625	-0.38909912109375	0.25177001953125	0.28228759765625
1.787	0.09101074218750001	-0.04071533203125	9.762099609375001	-0.09918212890625	0.1983642578125	0.30517578125
1.797	0.0431103515625	-0.023950195312500002	9.83155517578125	-0.34332275390625	0.25177001953125	0.3204345703125
1.805	0.13172607421875002	-0.02155517578125	9.83155517578125	0.06103515625	0.1678466796875	0.43487548828125
1.814	0.09101074218750001	-0.026345214843750003	9.71419921875	-0.0457763671875	0.396728515625	0.2899169921875
1.822	0.086220703125	-0.045505371093750004	9.781259765625	-0.12969970703125	0.2288818359375	0.23651123046875
1.831	0.09340576171875001	0.00239501953125	9.92256591796875	-0.1220703125	0.05340576171875	0.2288818359375
1.84	0.023950195312500002	-0.00718505859375	9.78844482421875	-0.2593994140625	0.091552734375	0.2288818359375
1.849	0.08861572265625	-0.00718505859375	9.64474365234375	-0.152587890625	-0.17547607421875	0.2899169921875
1.858	0.05987548828125	-0.05987548828125	9.81239501953125	-0.1220703125	-0.0457763671875	0.37384033203125
1.867	0.076640625	-0.04071533203125	9.73096435546875	-0.20599365234375	-0.1068115234375	0.2593994140625
1.878	0.10059082031250001	-0.06466552734375	9.7860498046875	-0.1068115234375	-0.05340576171875	0.2899169921875
1.887	0.08861572265625	-0.026345214843750003	9.723779296875	-0.12969970703125	0.152587890625	0.1983642578125
1.896	0.0622705078125	-0.0622705078125	9.79083984375	-0.2899169921875	0.17547607421875	0.19073486328125
1.905	0.12693603515625002	-0.055085449218750006	9.76449462890625	0.02288818359375	-0.0762939453125	0.14495849609375
1.913	0.0431103515625	-0.43349853515625003	9.7285693359375	0.06866455078125	-0.35858154296875	0.3204345703125
1.923	0.09340576171875001	-0.28261230468750004	9.77886474609375	-0.16021728515625	-0.091552734375	0.152587890625
1.932	0.124541015625	-0.39996826171875	9.83155517578125	0.1983642578125	0.87738037109375	0.20599365234375
1.942	0.1149609375	-0.19399658203125	9.853110351562501	-0.11444091796875	0.72479248046875	0.1220703125
1.951	-0.03592529296875	0.11735595703125	9.8626904296875	0.03814697265625	0.23651123046875	0.2593994140625
1.959	0.09340576171875001	-0.10538085937500001	9.829160156250001	0.1678466796875	0.17547607421875	0.14495849609375
1.969	0.07424560546875	0.0718505859375	9.7860498046875	-0.244140625	0.274658203125	0.3662109375
1.978	0.15088623046875002	-0.09580078125000001	9.687854003906251	-0.20599365234375	0.396728515625	0.00762939453125
1.987	0.055085449218750006	-0.0718505859375	9.71180419921875	-0.0762939453125	0.4425048828125	0.091552734375
1.996	0.045505371093750004	-0.09101074218750001	9.86508544921875	-0.18310546875	-0.14495849609375	0.17547607421875
2.006	0.00718505859375	-0.3065625	9.71180419921875	-0.0152587890625	0.00762939453125	-0.0457763671875
2.014	0.03113525390625	-0.47900390625	9.85071533203125	-0.18310546875	-0.03814697265625	0.05340576171875
2.023	0.09819580078125001	-0.16525634765625	9.7285693359375	0.152587890625	0.4730224609375	0.02288818359375
2.031	0.10538085937500001	-0.29219238281250004	9.7381494140625	0.0152587890625	0.96893310546875	-0.03814697265625
2.04	0.10059082031250001	-0.34248779296875004	9.912985839843751	0.3204345703125	0.3814697265625	-0.06866455078125
2.05	0.12693603515625002	-0.055085449218750006	9.781259765625	0.80108642578125	1.9989013671875	0.2593994140625
2.059	-0.02155517578125	-0.01916015625	9.81718505859375	0.8087158203125	2.01416015625	0.38909912109375
2.068	0.03113525390625	-0.08382568359375	9.814790039062501	0.67138671875	0.93841552734375	0.1983642578125
2.077	0.15088623046875002	0.10298583984375001	9.67827392578125	0.67138671875	2.3345947265625	0.19073486328125
2.086	0.0622705078125	0.1197509765625	9.776469726562501	0.69427490234375	1.89971923828125	0.08392333984375
2.096	0.0047900390625	0.124541015625	9.86987548828125	0.701904296875	2.1514892578125	0.06866455078125
2.104	0.09819580078125001	-0.17962646484375	9.81239501953125	0.87738037109375	1.8463134765625	0.1983642578125
2.114	0.1149609375	-0.01916015625	9.7860498046875	1.03759765625	2.81524658203125	0.11444091796875
2.123	-0.076640625	0.07424560546875	9.75012451171875	0.5950927734375	1.96075439453125	0.3204345703125
2.132	0.08382568359375	-0.067060546875	9.8243701171875	-0.274658203125	-0.11444091796875	0.23651123046875
2.142	0.15328125	-0.20597167968750002	9.814790039062501	-0.2899169921875	0.20599365234375	0.18310546875
2.151	0.13412109375	-0.0047900390625	9.96328125	0.09918212890625	2.1820068359375	0.17547607421875
2.16	-0.1197509765625	0.1772314453125	9.886640625	0.54168701171875	2.471923828125	0.35858154296875
2.169	-0.06466552734375	-0.3879931640625	9.8435302734375	0.4119873046875	2.227783203125	0.18310546875
2.18	0.29937744140625	-0.162861328125	9.7573095703125	1.03759765625	5.24139404296875	0.213623046875
2.189	0.10298583984375001	0.22273681640625	9.72617431640625	1.190185546875	7.9498291015625	0.38909912109375
2.199	0.2347119140625	0.24668701171875002	9.800419921875001	-0.20599365234375	10.01739501953125	0.244140625
2.208	-0.15328125	0.10298583984375001	9.83155517578125	0.030517578125	9.2620849609375	0.3662109375
2.217	-0.20357666015625	0.12693603515625002	9.742939453125	0.0457763671875	5.9356689453125	0.457763671875
2.227	-0.09580078125000001	-0.050295410156250005	9.821975097656251	0.16021728515625	4.26483154296875	0.25177001953125
2.236	-0.09580078125000001	-0.14130615234375002	9.7573095703125	0.11444091796875	2.40325927734375	0.1373291015625
2.245	-0.052690429687500005	0.17483642578125	9.742939453125	-0.3509521484375	0.00762939453125	0.3509521484375
2.255	-0.07424560546875	-0.10777587890625001	9.80281494140625	-0.22125244140625	-1.70135498046875	0.16021728515625
2.265	-0.026345214843750003	0.0	9.85071533203125	-0.05340576171875	-1.82342529296875	0.2288818359375
2.273	0.0431103515625	-0.045505371093750004	9.65911376953125	-0.12969970703125	-1.0223388671875	0.34332275390625
2.283	0.11256591796875001	-0.01676513671875	9.8339501953125	0.11444091796875	1.02996826171875	0.152587890625
2.292	0.11256591796875001	-0.0718505859375	9.84113525390625	-0.14495849609375	4.60052490234375	0.06103515625
2.301	-0.011975097656250001	-0.06945556640625	9.80281494140625	-0.19073486328125	6.103515625	0.20599365234375
2.311	-0.05987548828125	-0.023950195312500002	9.793234863281251	-0.06103515625	5.62286376953125	0.4730224609375
2.32	-0.12693603515625002	-0.11256591796875001	9.74533447265625	-0.05340576171875	4.72259521484375	0.274658203125
2.33	-0.076640625	-0.1197509765625	9.67827392578125	-0.0152587890625	1.8768310546875	-0.00762939453125
2.339	0.076640625	-0.0335302734375	9.762099609375001	-0.3814697265625	1.6021728515625	0.0457763671875
2.349	-0.10059082031250001	-0.09580078125000001	9.7956298828125	-0.1678466796875	2.349853515625	0.335693359375
2.359	-0.08861572265625	-0.18441650390625	9.8722705078125	-0.16021728515625	1.9683837890625	0.11444091796875
2.369	-0.13412109375	-0.13651611328125002	9.702224121093751	-0.20599365234375	-0.1678466796875	0.08392333984375
2.378	-0.1389111328125	-0.05748046875	9.63755859375	-0.2593994140625	-2.06756591796875	0.1068115234375
2.387	-0.19878662109375	-0.0047900390625	9.8243701171875	-0.3662109375	-5.340576171875	0.0457763671875
2.398	-0.15328125	-0.00718505859375	9.8243701171875	-0.1220703125	-6.62994384765625	0.05340576171875
2.407	0.09819580078125001	0.22752685546875	9.7381494140625	-0.274658203125	-4.98199462890625	-0.02288818359375
2.417	0.0622705078125	0.10538085937500001	9.740544433593751	-0.60272216796875	-3.71551513671875	-0.030517578125
2.426	-0.03592529296875	0.28021728515625	9.886640625	-0.7171630859375	-4.1351318359375	0.213623046875
2.436	-0.15567626953125	0.09101074218750001	9.889035644531251	-0.2288818359375	-4.66156005859375	0.06103515625
2.446	-0.08382568359375	0.28261230468750004	9.7189892578125	-0.34332275390625	-5.59234619140625	-0.08392333984375
2.455	0.045505371093750004	0.3305126953125	9.685458984375	-0.6103515625	-7.69805908203125	0.00762939453125
2.466	-0.18681152343750002	0.15328125	9.7716796875	-0.92315673828125	-11.00921630859375	-0.02288818359375
2.477	0.0143701171875	0.24668701171875002	9.915380859375	-0.8087158203125	-12.939453125	-0.09918212890625
2.486	0.0383203125	0.22273681640625	9.853110351562501	-0.579833984375	0.31280517578125	-0.00762939453125
2.495	-0.18441650390625	0.124541015625	10.08063720703125	-0.518798828125	-1.5106201171875	0.08392333984375
2.504	-0.026345214843750003	0.023950195312500002	9.956096191406251	-0.335693359375	-3.18145751953125	-0.08392333984375
2.513	0.26345214843750003	0.023950195312500002	9.656718750000001	-0.30517578125	-0.63323974609375	-0.00762939453125
2.523	0.18681152343750002	-0.028740234375	9.65432373046875	-0.4119873046875	1.312255859375	-0.08392333984375
2.533	-0.11017089843750001	-0.04071533203125	9.92256591796875	-0.4425048828125	-0.091552734375	0.00762939453125
2.543	-0.1149609375	-0.01676513671875	9.927355957031251	-0.29754638671875	-2.0904541015625	-0.1220703125
2.552	0.20836669921875	-0.03113525390625	9.67827392578125	-0.6103515625	-0.64849853515625	0.03814697265625
2.561	0.16046630859375	-0.023950195312500002	9.656718750000001	-0.6561279296875	0.06866455078125	-0.05340576171875
2.57	0.0431103515625	-0.0047900390625	9.75012451171875	-0.66375732421875	-0.57220458984375	-0.06103515625
2.579	-0.047900390625000004	-0.026345214843750003	9.96088623046875	-0.7171630859375	-1.36566162109375	-0.26702880859375
2.589	-0.03113525390625	-0.026345214843750003	9.89861572265625	-0.8697509765625	-2.40325927734375	-0.23651123046875
2.599	0.22752685546875	-0.047900390625000004	9.716594238281251	-0.63323974609375	-0.26702880859375	-0.09918212890625
2.609	0.052690429687500005	-0.009580078125	9.77886474609375	-0.640869140625	-0.06103515625	-0.244140625
2.618	0.009580078125	-0.0431103515625	9.78365478515625	-0.63323974609375	-0.89263916015625	-0.08392333984375
2.628	0.028740234375	0.1149609375	9.814790039062501	-0.79345703125	-1.9073486328125	-0.20599365234375
2.637	-0.047900390625000004	0.32332763671875003	9.7381494140625	-2.76947021484375	-4.28009033203125	-0.06866455078125
2.648	0.076640625	0.08861572265625	9.93214599609375	-3.0670166015625	-7.69805908203125	-0.22125244140625
2.658	0.316142578125	-0.229921875	9.73575439453125	-0.5340576171875	-2.54058837890625	-0.030517578125
2.667	0.35685791015625	0.10059082031250001	9.63037353515625	-0.48065185546875	1.068115234375	-0.03814697265625
2.677	-0.0814306640625	0.21076171875000002	9.8626904296875	-0.6561279296875	-0.0762939453125	0.1373291015625
2.686	-0.0383203125	-0.045505371093750004	9.889035644531251	-0.3204345703125	-1.88446044921875	0.05340576171875
2.696	0.22034179687500002	0.00718505859375	9.853110351562501	-0.08392333984375	-1.30462646484375	0.05340576171875
2.705	0.29219238281250004	0.24189697265625001	9.6710888671875	-0.4425048828125	-0.23651123046875	-0.08392333984375
2.714	0.19160156250000002	0.20597167968750002	9.742939453125	-0.46539306640625	-0.19073486328125	-0.14495849609375
2.723	0.0	0.27063720703125	9.860295410156251	-0.48828125	-1.38092041015625	-0.1983642578125
2.734	0.047900390625000004	-0.10538085937500001	9.89861572265625	-0.7476806640625	-2.83050537109375	0.02288818359375
2.743	0.15567626953125	0.21076171875000002	9.821975097656251	-0.51116943359375	-1.04522705078125	-0.31280517578125
2.752	0.076640625	0.047900390625000004	9.79802490234375	0.0	0.4730224609375	-0.00762939453125
2.761	0.12214599609375	-0.16525634765625	9.89382568359375	0.1983642578125	1.77764892578125	0.09918212890625
2.77	-0.03113525390625	0.08382568359375	9.85550537109375	-0.3204345703125	-0.06866455078125	0.05340576171875
2.78	-0.028740234375	0.143701171875	9.8243701171875	-0.20599365234375	-0.5645751953125	-0.08392333984375
2.789	0.16525634765625	-0.13412109375	9.90580078125	-0.17547607421875	-0.63323974609375	0.02288818359375
2.798	0.21794677734375	-0.09101074218750001	9.6902490234375	0.05340576171875	0.12969970703125	0.0152587890625
2.806	0.15567626953125	0.10298583984375001	9.83155517578125	-0.40435791015625	0.213623046875	-0.08392333984375
2.816	0.1772314453125	-0.0431103515625	9.78365478515625	-0.3509521484375	0.3814697265625	0.1068115234375
2.825	0.0622705078125	0.055085449218750006	9.821975097656251	-0.1678466796875	-0.72479248046875	-0.030517578125
2.834	0.18681152343750002	-0.17483642578125	9.685458984375	-0.48828125	-0.3662109375	-0.03814697265625
2.843	0.11256591796875001	0.0431103515625	9.80281494140625	-0.152587890625	0.30517578125	0.05340576171875
2.852	0.09101074218750001	-0.076640625	9.8243701171875	-0.20599365234375	0.57220458984375	0.00762939453125
2.862	-0.0335302734375	0.03113525390625	9.9680712890625	-0.29754638671875	-0.61798095703125	-0.1220703125
2.871	0.09340576171875001	0.09101074218750001	9.81718505859375	-0.0762939453125	-0.6256103515625	0.152587890625
2.88	0.20357666015625	-0.050295410156250005	9.77407470703125	-0.0152587890625	-0.49591064453125	0.0762939453125
2.889	0.124541015625	-0.25387207031250003	9.6327685546875	-0.42724609375	-0.244140625	0.02288818359375
2.898	0.28021728515625	0.02155517578125	9.627978515625001	-0.02288818359375	1.25885009765625	0.16021728515625
2.908	0.15088623046875002	-0.21315673828125	9.821975097656251	-0.0762939453125	0.9918212890625	0.03814697265625
2.917	0.07424560546875	0.16525634765625	9.80281494140625	-0.18310546875	0.9002685546875	-0.16021728515625
2.927	-0.06466552734375	-0.19639160156250002	9.927355957031251	-0.2288818359375	-1.33514404296875	0.06103515625
2.936	0.0814306640625	-0.023950195312500002	9.7381494140625	-0.26702880859375	0.1678466796875	0.03814697265625
2.946	0.13412109375	-0.24189697265625001	9.776469726562501	0.08392333984375	0.66375732421875	0.1983642578125
2.955	-0.01916015625	-0.19160156250000002	9.912985839843751	-0.17547607421875	-0.96893310546875	0.244140625
2.964	0.14130615234375002	-0.09101074218750001	9.687854003906251	0.3662109375	0.35858154296875	0.17547607421875
2.973	0.067060546875	-0.07903564453125	9.75251953125	-0.05340576171875	1.52587890625	0.0152587890625
2.982	0.124541015625	0.1676513671875	9.800419921875001	0.335693359375	1.91497802734375	-0.05340576171875
2.992	-0.12214599609375	-0.16046630859375	10.02076171875	-0.12969970703125	0.89263916015625	0.030517578125
3.001	-0.052690429687500005	-0.1484912109375	9.89382568359375	-0.18310546875	-0.84686279296875	0.0152587890625
3.011	0.1389111328125	0.34248779296875004	9.74533447265625	-0.030517578125	-0.52642822265625	0.25177001953125
3.019	0.18920654296875	0.23710693359375	9.59923828125	-0.42724609375	-0.12969970703125	0.091552734375
3.03	0.3305126953125	0.3305126953125	9.60642333984375	-0.335693359375	1.62506103515625	0.37384033203125
3.039	-0.1389111328125	0.11256591796875001	9.9297509765625	-0.00762939453125	-0.75531005859375	0.3509521484375
3.048	0.143701171875	0.0	9.73096435546875	-0.274658203125	-1.6937255859375	0.32806396484375
3.057	0.26345214843750003	0.047900390625000004	9.68306396484375	-0.4730224609375	0.0762939453125	-0.12969970703125
3.066	0.17962646484375	-0.10059082031250001	9.7668896484375	-1.12152099609375	-0.09918212890625	0.19073486328125
3.077	-0.09340576171875001	-0.10059082031250001	10.08063720703125	-1.64031982421875	-5.5389404296875	0.12969970703125
3.087	0.46702880859375	-0.023950195312500002	9.69743408203125	-1.15203857421875	-3.13568115234375	0.11444091796875
3.096	0.229921875	-0.23231689453125	9.5944482421875	-0.70953369140625	-0.51116943359375	0.31280517578125
3.105	0.30416748046875003	-0.05748046875	9.819580078125	0.03814697265625	-0.12969970703125	0.3814697265625
3.115	0.27303222656250004	0.09101074218750001	9.596843261718751	0.1373291015625	1.983642578125	0.31280517578125
3.124	0.18681152343750002	-0.0143701171875	9.7668896484375	0.6256103515625	3.7841796875	0.2288818359375
3.133	-0.28261230468750004	-0.20836669921875	10.092612304687501	0.89263916015625	2.98309326171875	0.61798095703125
3.142	0.04071533203125	-0.11735595703125	9.7716796875	0.6866455078125	-0.1068115234375	0.20599365234375
3.151	0.24668701171875002	0.0335302734375	9.7668896484375	0.25177001953125	0.244140625	0.16021728515625
3.161	0.30416748046875003	-0.28979736328125	9.67827392578125	-0.09918212890625	0.40435791015625	-0.03814697265625
3.17	-0.10777587890625001	0.04071533203125	9.874665527343751	0.1983642578125	1.24359130859375	0.0
3.179	-0.13172607421875002	-0.3784130859375	9.96088623046875	-0.17547607421875	-0.5340576171875	-0.02288818359375
3.188	-0.09340576171875001	0.15088623046875002	9.96567626953125	0.213623046875	-1.64794921875	0.37384033203125
3.198	0.4454736328125	-0.16525634765625	9.63037353515625	1.0986328125	3.0364990234375	0.3662109375
3.208	-0.01916015625	-0.30177246093750004	9.77886474609375	1.33514404296875	5.6610107421875	0.4119873046875
3.218	-0.26345214843750003	-0.01916015625	9.98483642578125	0.20599365234375	-1.4495849609375	0.14495849609375
3.227	0.4071533203125	0.11256591796875001	9.723779296875	0.3662109375	0.640869140625	0.335693359375
3.236	0.6562353515625	-0.143701171875	9.433981933593751	0.2288818359375	1.67083740234375	0.274658203125
3.246	0.39278320312500004	-0.42152343750000004	9.49146240234375	0.030517578125	4.058837890625	0.091552734375
3.255	-0.050295410156250005	0.13412109375	9.8914306640625	0.00762939453125	1.80816650390625	0.1983642578125
3.264	-0.28261230468750004	-0.40954833984375	10.02794677734375	0.17547607421875	-1.190185546875	0.20599365234375
3.273	0.1484912109375	-0.18920654296875	9.747729492187501	0.12969970703125	-1.3275146484375	0.17547607421875
3.282	0.41433837890625	-0.61552001953125	9.582473144531251	0.02288818359375	0.9918212890625	0.12969970703125
3.293	0.19399658203125	-0.4646337890625	9.754914550781251	0.1220703125	1.953125	0.18310546875
3.302	0.011975097656250001	-0.6370751953125	9.886640625	-0.1983642578125	0.3204345703125	0.16021728515625
3.311	-0.10059082031250001	-0.46223876953125004	9.8722705078125	-0.00762939453125	-1.07574462890625	0.11444091796875
3.32	0.0814306640625	-0.26345214843750003	9.781259765625	0.152587890625	-0.17547607421875	0.19073486328125
3.331	0.22752685546875	-0.0383203125	9.71180419921875	-0.19073486328125	0.89263916015625	0.0152587890625
3.34	0.07903564453125	-0.09101074218750001	9.836345214843751	-0.091552734375	0.8087158203125	0.23651123046875
3.349	0.01916015625	-0.026345214843750003	9.829160156250001	-0.08392333984375	-0.45013427734375	0.244140625
3.358	0.143701171875	-0.026345214843750003	9.747729492187501	-0.0152587890625	-0.8544921875	0.18310546875
3.367	0.1197509765625	-0.047900390625000004	9.77407470703125	-0.31280517578125	0.091552734375	-0.03814697265625
3.377	0.1772314453125	-0.0143701171875	9.71180419921875	-0.152587890625	0.7781982421875	0.00762939453125
3.386	0.14130615234375002	-0.04071533203125	9.71180419921875	0.0152587890625	0.701904296875	0.25177001953125
3.394	0.00718505859375	-0.076640625	9.8243701171875	-0.34332275390625	0.1678466796875	0.1373291015625
3.403	-0.0431103515625	-0.08382568359375	9.857900390625	-0.274658203125	-0.274658203125	0.152587890625
3.412	0.11256591796875001	-0.07424560546875	9.83155517578125	0.20599365234375	-0.31280517578125	0.274658203125
3.422	0.17244140625	-0.0383203125	9.754914550781251	-0.00762939453125	0.5035400390625	0.5645751953125
3.431	0.18920654296875	0.00239501953125	9.67827392578125	-0.1220703125	0.8544921875	0.35858154296875
3.44	0.10777587890625001	-0.0718505859375	9.821975097656251	-0.25177001953125	0.63323974609375	0.4730224609375
3.449	0.05748046875	-0.0143701171875	9.78365478515625	0.14495849609375	0.0762939453125	0.3204345703125
3.458	0.03113525390625	-0.0335302734375	9.829160156250001	-0.091552734375	0.091552734375	0.34332275390625
3.467	0.0718505859375	-0.067060546875	9.83155517578125	-0.08392333984375	-0.11444091796875	0.32806396484375
3.476	0.1484912109375	-0.28500732421875	9.742939453125	-0.05340576171875	0.34332275390625	0.31280517578125
3.485	0.10059082031250001	-0.30895751953125	9.84113525390625	-0.2288818359375	0.63323974609375	0.38909912109375
3.494	0.052690429687500005	-0.21555175781250002	9.85071533203125	-0.26702880859375	0.5950927734375	0.25177001953125
3.504	0.05987548828125	-0.09819580078125001	9.8483203125	0.1678466796875	0.20599365234375	0.06103515625
3.513	0.0335302734375	-0.1772314453125	9.800419921875001	-0.0762939453125	0.06103515625	0.30517578125
3.521	0.08861572265625	0.023950195312500002	9.81718505859375	-0.30517578125	0.16021728515625	0.1678466796875
3.53	0.11017089843750001	-0.0431103515625	9.75012451171875	-0.091552734375	0.11444091796875	0.20599365234375
3.539	0.11017089843750001	-0.0622705078125	9.7956298828125	-0.1983642578125	0.3204345703125	0.05340576171875
3.549	0.0814306640625	-0.050295410156250005	9.740544433593751	-0.12969970703125	0.3662109375	0.030517578125
3.558	0.07903564453125	-0.24189697265625001	9.857900390625	-0.244140625	0.274658203125	0.1373291015625
3.567	0.0383203125	-0.086220703125	9.8722705078125	-0.00762939453125	-0.30517578125	0.16021728515625
3.576	0.0814306640625	-0.18202148437500001	9.81	-0.12969970703125	-0.20599365234375	0.030517578125
3.586	0.0718505859375	-0.18202148437500001	9.71419921875	-0.16021728515625	0.00762939453125	0.09918212890625
3.595	0.0383203125	-0.076640625	9.747729492187501	-0.12969970703125	0.457763671875	0.244140625
3.603	0.026345214843750003	-0.488583984375	9.814790039062501	-0.3509521484375	0.2288818359375	0.02288818359375
3.612	0.08382568359375	-0.0047900390625	9.8914306640625	-0.18310546875	-0.31280517578125	0.2288818359375
3.621	-0.0143701171875	-0.20597167968750002	9.78365478515625	-0.11444091796875	-0.9002685546875	0.274658203125
3.632	0.20357666015625	-0.1389111328125	9.7573095703125	-0.51116943359375	-0.18310546875	0.1220703125
3.641	0.12693603515625002	0.19399658203125	9.7956298828125	-0.35858154296875	-0.14495849609375	0.00762939453125
3.65	0.0718505859375	-0.29219238281250004	9.807604980468751	-0.518798828125	0.12969970703125	-0.02288818359375
3.659	0.12693603515625002	0.10538085937500001	9.814790039062501	0.02288818359375	-0.20599365234375	-0.02288818359375
3.668	0.09340576171875001	-0.067060546875	9.814790039062501	-0.2288818359375	0.64849853515625	0.152587890625
3.678	0.050295410156250005	-0.21315673828125	9.82676513671875	-0.11444091796875	0.5645751953125	0.06866455078125
3.686	0.03592529296875	-0.24189697265625001	9.81718505859375	-0.3662109375	0.091552734375	-0.0152587890625
3.695	0.06945556640625	-0.28740234375	9.9249609375	-0.3509521484375	0.17547607421875	-0.030517578125
3.704	0.1293310546875	-0.32572265625	9.76449462890625	-0.34332275390625	0.29754638671875	0.3814697265625
3.714	0.023950195312500002	0.0047900390625	9.73096435546875	-0.51116943359375	-0.12969970703125	0.091552734375
3.723	0.0431103515625	0.25626708984375	9.94412109375	-0.42724609375	-0.89263916015625	-0.0762939453125
3.733	0.2442919921875	-0.20836669921875	9.5944482421875	-0.6256103515625	1.25885009765625	-0.18310546875
3.742	-0.0814306640625	-0.2442919921875	9.920170898437501	-0.11444091796875	0.06103515625	-0.3662109375
3.751	-0.026345214843750003	0.13412109375	9.89861572265625	-0.22125244140625	-0.08392333984375	-0.0457763671875
3.762	0.10777587890625001	-0.30416748046875003	9.78365478515625	-0.42724609375	-0.7476806640625	-0.08392333984375
3.772	0.1772314453125	-0.316142578125	9.7285693359375	-0.2899169921875	1.861572265625	-0.16021728515625
3.781	-0.0383203125	0.1197509765625	9.89382568359375	-0.1068115234375	0.06866455078125	-0.14495849609375
3.791	0.0814306640625	-0.35685791015625	9.67827392578125	-0.1373291015625	-1.0223388671875	-0.2288818359375
3.801	0.143701171875	0.10538085937500001	9.704619140625	-0.1678466796875	0.87738037109375	0.091552734375
3.81	0.045505371093750004	-0.09580078125000001	9.84592529296875	-0.396728515625	-0.09918212890625	-0.2899169921875
3.82	-0.124541015625	0.09340576171875001	9.97046630859375	-0.45013427734375	-1.9378662109375	-0.0152587890625
3.829	0.1197509765625	-0.23710693359375	9.73575439453125	-0.6561279296875	-0.6866455078125	-0.4730224609375
3.838	0.18681152343750002	-0.076640625	9.740544433593751	-0.18310546875	-0.49591064453125	0.03814697265625
3.849	0.08382568359375	-0.1197509765625	9.819580078125	0.05340576171875	0.5340576171875	0.06866455078125
3.857	0.16525634765625	0.02155517578125	9.80281494140625	-0.02288818359375	0.7171630859375	0.2899169921875
3.865	0.11735595703125	-0.23710693359375	9.70701416015625	0.00762939453125	0.9307861328125	0.12969970703125
3.874	0.05987548828125	-0.01916015625	9.7956298828125	-0.0762939453125	0.701904296875	0.030517578125
3.884	-0.05987548828125	-0.18202148437500001	9.769284667968751	0.16021728515625	0.4730224609375	0.00762939453125
3.893	0.052690429687500005	0.06466552734375	9.81239501953125	-0.00762939453125	1.25885009765625	0.02288818359375
3.901	0.023950195312500002	-0.1389111328125	9.874665527343751	-0.11444091796875	0.49591064453125	0.22125244140625
3.91	0.124541015625	-0.011975097656250001	9.8339501953125	0.29754638671875	1.67083740234375	0.213623046875
3.919	-0.01916015625	-0.0383203125	9.78844482421875	0.08392333984375	0.20599365234375	0.11444091796875
3.929	-0.21315673828125	0.11735595703125	9.97046630859375	-0.0152587890625	-0.48065185546875	0.274658203125
3.938	0.0143701171875	-0.143701171875	9.83155517578125	0.030517578125	-0.99945068359375	0.43487548828125
3.947	0.03113525390625	0.02155517578125	9.819580078125	-0.4425048828125	-0.63323974609375	0.2288818359375
3.955	0.13651611328125002	-0.18202148437500001	9.79802490234375	-0.2593994140625	-0.4119873046875	0.4119873046875
3.965	0.086220703125	0.07903564453125	9.72138427734375	-0.63323974609375	-0.72479248046875	0.274658203125
3.976	-0.0718505859375	-0.15328125	9.934541015625001	-0.14495849609375	-0.80108642578125	0.3662109375
3.985	-0.0431103515625	-0.21315673828125	9.75251953125	-0.4119873046875	-1.74713134765625	0.1220703125
3.994	0.20597167968750002	0.43828857421875	9.781259765625	0.213623046875	-0.274658203125	0.23651123046875
4.003	0.24908203125	-0.11735595703125	9.6998291015625	-0.22125244140625	0.57220458984375	0.32806396484375
4.013	0.31853759765625	0.3592529296875	9.613608398437501	-0.06103515625	3.48663330078125	0.22125244140625
4.022	-0.03113525390625	0.31853759765625	9.9105908203125	-0.00762939453125	1.9378662109375	0.12969970703125
4.031	-0.296982421875	0.16046630859375	10.049501953125	-0.1678466796875	-1.190185546875	0.030517578125
4.041	0.0622705078125	0.55564453125	9.8626904296875	-0.54931640625	-2.64739990234375	0.12969970703125
4.05	0.258662109375	0.4071533203125	9.72138427734375	-0.91552734375	-1.28173828125	-0.02288818359375
4.061	0.11256591796875001	0.57719970703125	9.781259765625	-0.58746337890625	-0.17547607421875	0.06866455078125
4.07	0.08861572265625	0.7807763671875	9.96567626953125	-0.67138671875	-0.9613037109375	-0.0152587890625
4.079	0.055085449218750006	0.10777587890625001	9.8626904296875	-0.42724609375	-1.4801025390625	0.02288818359375
4.088	0.13172607421875002	-0.055085449218750006	9.72617431640625	-0.396728515625	-0.89263916015625	0.06103515625
4.098	0.19639160156250002	-0.076640625	9.7956298828125	-0.20599365234375	0.213623046875	-0.518798828125
4.108	-0.00718505859375	-0.01676513671875	9.836345214843751	-0.63323974609375	-0.45013427734375	-0.51116943359375
4.118	-0.33769775390625	1.20948486328125	10.14290771484375	-2.52532958984375	-4.669189453125	-0.8544921875
4.129	-0.34727783203125	1.389111328125	10.114167480468751	-1.25885009765625	-5.035400390625	-0.3814697265625
4.14	0.45026367187500005	0.62989013671875	9.44356201171875	-1.190185546875	-0.35858154296875	-0.52642822265625
4.15	-0.124541015625	0.57719970703125	9.9968115234375	-0.732421875	-1.77764892578125	-0.244140625
4.159	0.1197509765625	0.536484375	9.807604980468751	-0.38909912109375	-1.44195556640625	-0.1678466796875
4.168	0.14609619140625002	0.5053491210937501	9.762099609375001	-0.1373291015625	-0.0152587890625	-0.2593994140625
4.178	-0.20357666015625	0.53408935546875	9.96567626953125	-0.1678466796875	-1.46484375	0.18310546875
4.189	0.0	0.7041357421875001	9.776469726562501	-1.06048583984375	-1.35040283203125	-0.22125244140625
4.198	0.22513183593750002	0.3065625	9.79802490234375	0.1068115234375	3.0364990234375	0.23651123046875
4.207	0.00239501953125	0.661025390625	9.886640625	0.213623046875	0.0457763671875	0.6561279296875
4.215	0.22273681640625	-0.18681152343750002	9.642348632812501	-0.80108642578125	0.091552734375	0.1068115234375
4.226	-0.22513183593750002	-0.20597167968750002	10.01836669921875	0.40435791015625	1.0223388671875	0.19073486328125
4.235	-0.16046630859375	0.30895751953125	9.83155517578125	0.518798828125	3.16619873046875	0.30517578125
4.244	-0.661025390625	0.26584716796875	10.2842138671875	-0.54168701171875	1.678466796875	0.1373291015625
4.254	-0.7855664062500001	-0.10538085937500001	10.33450927734375	0.67138671875	-2.3193359375	0.335693359375
4.263	0.18920654296875	-0.00718505859375	10.0351318359375	0.79345703125	3.73077392578125	0.732421875
4.274	0.8813671875000001	0.28740234375	9.24238037109375	0.26702880859375	9.521484375	1.19781494140625
4.284	-1.6334033203125	0.15088623046875002	10.72250244140625	-0.152587890625	-4.4708251953125	0.762939453125
4.294	-0.613125	-0.16525634765625	10.18601806640625	0.42724609375	-5.71441650390625	-0.518798828125
4.303	0.36404296875000003	0.0	9.426796875	-0.09918212890625	-3.83758544921875	0.2288818359375
4.314	0.93645263671875	0.35206787109375004	9.32381103515625	0.90789794921875	7.049560546875	0.732421875
4.323	-0.6274951171875001	-0.0047900390625	10.356064453125	-0.06103515625	1.91497802734375	0.32806396484375
4.333	-0.40236328125000004	-0.12214599609375	10.28900390625	1.46484375	-4.3487548828125	0.1678466796875
4.342	0.7855664062500001	-0.1293310546875	9.54415283203125	0.52642822265625	2.79998779296875	1.01470947265625
4.353	0.37362304687500003	-0.39038818359375	9.83155517578125	0.28228759765625	0.92315673828125	-0.14495849609375
4.363	1.04662353515625	-0.71611083984375	9.216035156250001	-0.18310546875	-1.3427734375	0.31280517578125
4.372	-0.21555175781250002	-0.0431103515625	9.742939453125	-0.16021728515625	5.645751953125	-0.00762939453125
4.382	-0.5316943359375	-0.27303222656250004	10.4183349609375	0.03814697265625	-1.31988525390625	-0.12969970703125
4.392	-0.11735595703125	-0.5652246093750001	10.092612304687501	-0.7476806640625	-7.62939453125	-0.152587890625
4.403	1.08015380859375	-0.42391845703125003	9.0196435546875	-0.274658203125	7.99560546875	0.02288818359375
4.413	-0.5891748046875	-0.641865234375	10.34887939453125	-0.06866455078125	2.09808349609375	0.38909912109375
4.422	-0.3448828125	-0.27303222656250004	10.174042968750001	-0.02288818359375	-6.1798095703125	0.26702880859375
4.432	0.8813671875000001	-1.04183349609375	9.28070068359375	-0.23651123046875	1.495361328125	0.49591064453125
4.442	-0.04071533203125	-1.063388671875	9.927355957031251	0.00762939453125	4.35638427734375	0.17547607421875
4.452	-0.59635986328125	-0.9077124023437501	10.26265869140625	-0.05340576171875	-1.04522705078125	0.2288818359375
4.462	0.05748046875	-0.9340576171875	9.742939453125	-0.14495849609375	-2.09808349609375	0.1220703125
4.471	0.35685791015625	-1.1903247070312502	9.53936279296875	-0.1983642578125	2.52532958984375	0.34332275390625
4.482	-0.17962646484375	-0.65863037109375	10.07105712890625	0.0	0.640869140625	0.08392333984375
4.491	-0.18920654296875	-0.028740234375	10.04231689453125	0.1373291015625	-1.41143798828125	0.18310546875
4.5	0.19639160156250002	-0.10538085937500001	9.7716796875	0.0762939453125	-0.885009765625	0.2899169921875
4.51	0.31374755859375003	-0.047900390625000004	9.57289306640625	-0.1068115234375	1.739501953125	0.5950927734375
4.519	0.03592529296875	0.00239501953125	9.90340576171875	0.0457763671875	1.434326171875	0.5035400390625
4.528	-0.04071533203125	-0.0622705078125	9.84592529296875	0.152587890625	0.89263916015625	0.58746337890625
4.537	-0.09580078125000001	0.00718505859375	9.9249609375	-0.12969970703125	-0.80108642578125	0.4119873046875
4.546	0.17483642578125	0.01916015625	9.742939453125	-0.1678466796875	-1.1749267578125	0.2288818359375
4.555	0.1772314453125	-0.04071533203125	9.6327685546875	-0.08392333984375	0.22125244140625	0.14495849609375
4.564	0.124541015625	-0.0431103515625	9.76449462890625	-0.0457763671875	0.72479248046875	0.20599365234375
4.574	0.05748046875	-0.21076171875000002	9.7956298828125	-0.31280517578125	0.274658203125	0.1678466796875
4.583	0.00718505859375	-0.62031005859375	9.92256591796875	-0.23651123046875	-0.274658203125	0.08392333984375
4.592	0.11256591796875001	-0.76880126953125	9.7956298828125	-0.03814697265625	-0.55694580078125	0.152587890625
4.601	0.045505371093750004	-0.49337402343750003	9.70701416015625	-0.0457763671875	0.19073486328125	0.335693359375
4.611	0.08861572265625	-0.354462890625	9.7573095703125	-0.3204345703125	-0.19073486328125	0.22125244140625
4.62	0.1197509765625	-0.5245092773437501	9.66390380859375	0.00762939453125	0.6866455078125	0.1678466796875
4.629	0.22752685546875	-0.7424560546875001	9.75970458984375	0.1983642578125	0.946044921875	0.23651123046875
4.639	0.0335302734375	-0.55564453125	9.8914306640625	0.152587890625	-1.39617919921875	0.30517578125
4.648	0.10059082031250001	-0.277822265625	9.80281494140625	0.00762939453125	0.08392333984375	-0.06103515625
4.658	0.45744873046875	-0.8837622070312501	9.582473144531251	0.25177001953125	2.05230712890625	-0.20599365234375
4.667	-0.11017089843750001	-0.6849755859375001	10.04231689453125	-0.03814697265625	0.457763671875	0.0457763671875
4.676	0.0622705078125	-0.5508544921875	9.8914306640625	-0.030517578125	0.0762939453125	0.0
4.686	-0.12214599609375	-0.40236328125000004	9.838740234375	-1.09100341796875	-0.86212158203125	-0.1983642578125
4.697	-0.10298583984375001	-0.35206787109375004	9.742939453125	-0.05340576171875	-0.4730224609375	-0.1068115234375
4.707	-0.29458740234375	-0.27542724609375	9.529782714843751	-0.7171630859375	-3.56292724609375	0.18310546875
4.716	-0.3305126953125	-0.73527099609375	9.79083984375	0.03814697265625	2.50244140625	0.30517578125
4.726	0.14130615234375002	-0.24908203125	9.857900390625	-0.6256103515625	-1.2664794921875	0.213623046875
4.736	-0.026345214843750003	-0.65863037109375	10.0255517578125	-0.40435791015625	-0.9765625	0.274658203125
4.746	0.55324951171875	-1.1831396484375	9.32381103515625	-0.35858154296875	3.2501220703125	-0.49591064453125
4.756	0.39278320312500004	-0.75443115234375	9.570498046875	-0.20599365234375	6.2255859375	0.6103515625
4.766	-0.21555175781250002	-0.71132080078125	9.73575439453125	0.64849853515625	-1.44195556640625	0.75531005859375
4.777	-0.143701171875	-0.86939208984375	9.98244140625	-1.65557861328125	-1.83868408203125	-0.1678466796875
4.787	0.43110351562500004	0.25147705078125	9.261540527343751	-0.9613037109375	5.37109375	0.12969970703125
4.797	-0.9580078125	-0.27303222656250004	10.33450927734375	-0.9307861328125	1.74713134765625	-0.6866455078125
4.808	-0.023950195312500002	0.24189697265625001	9.89861572265625	0.8697509765625	-11.383056640625	-1.190185546875
4.817	1.2022998046875	-0.22752685546875	9.148974609375001	-0.732421875	4.2877197265625	0.20599365234375
4.828	-1.0777587890625	0.45265869140625004	10.624306640625	0.1068115234375	2.79998779296875	-0.7171630859375
4.838	-1.46335693359375	-0.26345214843750003	10.528505859375	-1.0528564453125	-14.9688720703125	0.030517578125
4.848	0.948427734375	0.09819580078125001	9.53936279296875	-0.78582763671875	-0.61798095703125	-0.41961669921875
4.858	0.1293310546875	-0.12214599609375	9.7381494140625	-0.66375732421875	6.988525390625	0.20599365234375
4.868	-1.29570556640625	0.13651611328125002	10.31055908203125	-0.37384033203125	-7.4615478515625	0.12969970703125
4.878	0.1772314453125	0.25387207031250003	10.054291992187501	-0.38909912109375	-7.5531005859375	0.8697509765625
4.888	1.65016845703125	0.09101074218750001	9.501042480468751	2.64739990234375	15.1519775390625	1.2969970703125
4.897	-1.302890625	0.045505371093750004	10.193203125	0.335693359375	-1.50299072265625	0.52642822265625
4.908	0.85502197265625	-0.086220703125	9.09388916015625	1.007080078125	-0.34332275390625	0.87738037109375
4.917	0.40954833984375	0.22034179687500002	9.680668945312501	-0.72479248046875	4.33349609375	-0.03814697265625
4.927	-0.1676513671875	0.3400927734375	10.03752685546875	1.25885009765625	9.72747802734375	-0.06103515625
4.937	-1.16158447265625	0.8813671875000001	10.38240966796875	0.3509521484375	-6.072998046875	0.6866455078125
4.946	0.5029541015625	0.335302734375	9.723779296875	0.06103515625	1.2664794921875	-0.00762939453125
4.957	-0.05748046875	0.641865234375	9.920170898437501	-1.73187255859375	-0.4425048828125	-0.2899169921875
4.966	-0.20357666015625	0.22034179687500002	10.26744873046875	0.09918212890625	-1.28173828125	-0.40435791015625
4.975	0.2347119140625	0.28261230468750004	9.72138427734375	0.6561279296875	-0.274658203125	-0.54931640625
4.985	0.33769775390625	1.0370434570312501	9.51062255859375	-0.2899169921875	1.97601318359375	0.17547607421875
4.995	-0.55564453125	0.335302734375	9.99920654296875	-0.3814697265625	-1.64794921875	0.45013427734375
5.005	-0.1772314453125	0.99872314453125	9.88424560546875	0.0457763671875	-2.0599365234375	0.579833984375
5.014	0.055085449218750006	1.32205078125	9.814790039062501	-0.1068115234375	0.00762939453125	0.37384033203125
5.023	0.22513183593750002	1.11847412109375	9.620793457031251	0.03814697265625	1.739501953125	0.03814697265625
5.031	0.0431103515625	1.1735595703125001	9.7716796875	-0.1068115234375	0.9765625	0.3204345703125
5.042	-0.055085449218750006	1.082548828125	9.915380859375	-0.5340576171875	-0.091552734375	0.1983642578125
5.051	-0.01676513671875	0.11735595703125	9.8435302734375	-0.396728515625	-1.60980224609375	0.0
5.06	0.15088623046875002	0.0	9.800419921875001	-0.63323974609375	-1.373291015625	0.1373291015625
5.069	0.2347119140625	-0.0431103515625	9.72138427734375	-0.46539306640625	0.3204345703125	0.08392333984375
5.079	0.11017089843750001	-0.011975097656250001	9.656718750000001	-0.34332275390625	1.42669677734375	0.09918212890625
5.088	-0.09101074218750001	-0.02155517578125	9.956096191406251	-0.57220458984375	-0.52642822265625	-0.0457763671875
5.098	0.08382568359375	0.10538085937500001	9.84113525390625	-0.60272216796875	-0.9613037109375	-0.5035400390625
5.107	0.19399658203125	0.24189697265625001	9.740544433593751	-0.43487548828125	0.25177001953125	-0.18310546875
5.116	0.1197509765625	0.6945556640625	9.78365478515625	-0.26702880859375	1.15966796875	0.11444091796875
5.126	-0.07424560546875	0.7807763671875	9.953701171875	0.030517578125	-0.12969970703125	0.02288818359375
5.135	0.047900390625000004	0.9196875	9.84592529296875	0.12969970703125	-0.22125244140625	0.02288818359375
5.144	0.03113525390625	0.99872314453125	9.84592529296875	-0.42724609375	-0.77056884765625	-0.22125244140625
5.154	-0.028740234375	1.00830322265625	9.747729492187501	-0.5645751953125	-0.640869140625	-0.46539306640625
5.164	0.07424560546875	1.4418017578125	9.762099609375001	-0.61798095703125	0.35858154296875	-0.22125244140625
5.174	-0.0335302734375	0.6370751953125	9.96328125	-0.86212158203125	1.07574462890625	0.28228759765625
5.184	-0.08382568359375	0.7065307617187501	9.95130615234375	-1.2664794921875	-2.532958984375	0.29754638671875
5.194	0.28740234375	0.26345214843750003	9.81	-1.09100341796875	-3.15093994140625	0.5645751953125
5.203	0.5412744140625	-0.028740234375	9.448352050781251	-1.47247314453125	-0.84686279296875	0.32806396484375
5.214	0.25626708984375	0.75922119140625	9.685458984375	0.0762939453125	4.58526611328125	-0.35858154296875
5.223	-0.5748046875	0.5676196289062501	10.30576904296875	-0.06103515625	-0.16021728515625	0.48828125
5.232	-0.48139892578125004	0.41194335937500004	10.38719970703125	1.4495849609375	-0.06866455078125	0.3662109375
5.241	-0.39038818359375	0.48618896484375	9.769284667968751	-0.0152587890625	0.1068115234375	0.45013427734375
5.251	0.8574169921875	0.09340576171875001	9.54415283203125	0.18310546875	4.8675537109375	-0.14495849609375
5.261	-0.05987548828125	-0.00718505859375	9.61600341796875	-1.73187255859375	3.4027099609375	-0.67138671875
5.272	-0.7041357421875001	-0.85981201171875	10.43031005859375	-1.24359130859375	-7.8277587890625	0.3509521484375
5.282	0.5053491210937501	0.00718505859375	9.79083984375	-1.0223388671875	-5.22613525390625	-0.31280517578125
5.293	0.8406518554687501	-0.46702880859375	9.381291503906251	-1.617431640625	0.99945068359375	0.09918212890625
5.302	0.067060546875	-0.30895751953125	9.85071533203125	-0.152587890625	0.32806396484375	-0.08392333984375
5.312	-0.055085449218750006	0.06466552734375	9.87945556640625	-1.91497802734375	-1.19781494140625	-0.28228759765625
5.323	-0.8861572265625001	-0.49097900390625004	10.423125	-0.579833984375	-9.0789794921875	0.3204345703125
5.332	0.5508544921875	0.21794677734375	9.398056640625	0.1068115234375	0.28228759765625	0.4425048828125
5.342	0.076640625	0.48139892578125004	9.88424560546875	-0.98419189453125	-4.9591064453125	0.2899169921875
5.351	0.32572265625	0.0814306640625	9.41482177734375	-0.26702880859375	2.63214111328125	1.33514404296875
5.362	-0.9867480468750001	-1.05620361328125	10.2746337890625	-0.640869140625	-3.65447998046875	0.9918212890625
5.372	0.8478369140625001	-1.1088940429687502	9.2351953125	1.48773193359375	-0.579833984375	1.06048583984375
5.383	1.4418017578125	-0.9412426757812501	9.21843017578125	0.58746337890625	7.88116455078125	0.78582763671875
5.393	0.277822265625	-1.0681787109375	9.99920654296875	0.8544921875	0.79345703125	0.396728515625
5.402	0.5269042968750001	-0.3496728515625	9.441166992187501	-0.37384033203125	2.4261474609375	-0.1983642578125
5.412	-0.076640625	0.18681152343750002	10.054291992187501	0.1220703125	0.9613037109375	0.74005126953125
5.423	-0.70174072265625	-0.37362304687500003	10.336904296875	-0.1983642578125	-3.24249267578125	0.08392333984375
5.432	0.21555175781250002	-0.48139892578125004	9.75970458984375	0.34332275390625	-5.27191162109375	0.14495849609375
5.442	1.24301513671875	-0.7903564453125	9.04119873046875	-0.16021728515625	0.95367431640625	-0.1068115234375
5.452	-0.055085449218750006	-0.7520361328125	10.075847167968751	0.12969970703125	5.0811767578125	0.5950927734375
5.463	-0.5316943359375	-0.335302734375	10.3895947265625	0.1220703125	-2.40325927734375	-0.64849853515625
5.473	0.5316943359375	0.41912841796875	9.608818359375	-0.84686279296875	-4.1351318359375	-1.0833740234375
5.482	0.871787109375	0.54366943359375	9.340576171875	0.20599365234375	2.50244140625	-0.11444091796875
5.492	1.09931396484375	-1.96152099609375	10.8302783203125	0.79345703125	4.76837158203125	2.46429443359375
5.502	2.692001953125	-0.73527099609375	8.36101318359375	0.9307861328125	16.16668701171875	0.457763671875
5.513	-0.45744873046875	0.16046630859375	10.1692529296875	0.12969970703125	4.02069091796875	0.18310546875
5.523	-0.83586181640625	-0.055085449218750006	10.375224609375001	-0.2593994140625	-7.354736328125	-0.34332275390625
5.532	0.9915380859375	-0.7328759765625	9.1537646484375	0.69427490234375	0.3814697265625	0.3814697265625
5.542	0.48379394531250003	-1.1543994140625	9.63755859375	-0.17547607421875	6.81304931640625	0.06866455078125
5.552	-0.2347119140625	-0.87418212890625	10.05908203125	-0.03814697265625	0.69427490234375	0.0762939453125
5.562	-0.24668701171875002	-0.57240966796875	9.9393310546875	-0.1220703125	-3.07464599609375	0.14495849609375
5.571	0.41194335937500004	-0.61552001953125	9.53457275390625	-0.091552734375	0.6103515625	0.0762939453125
5.58	0.19160156250000002	-0.5987548828125	9.8243701171875	-0.0457763671875	2.29644775390625	0.0457763671875
5.591	-0.11256591796875001	-0.009580078125	10.03752685546875	-0.31280517578125	0.213623046875	0.08392333984375
5.6	-0.1389111328125	-0.06466552734375	9.9249609375	-0.02288818359375	-1.74713134765625	0.1068115234375
5.609	0.24668701171875002	-0.045505371093750004	9.76449462890625	-0.26702880859375	0.030517578125	0.14495849609375
5.618	0.22752685546875	0.0047900390625	9.65432373046875	-0.22125244140625	0.93841552734375	0.05340576171875
5.626	0.18681152343750002	0.0047900390625	9.800419921875001	-0.0762939453125	1.5106201171875	0.06866455078125
5.636	0.14609619140625002	0.011975097656250001	9.723779296875	-0.213623046875	1.18255615234375	0.06866455078125
5.644	0.00239501953125	-0.009580078125	9.8243701171875	-0.31280517578125	0.93841552734375	-0.030517578125
5.654	-0.055085449218750006	-0.03113525390625	9.915380859375	-0.40435791015625	-0.25177001953125	-0.9307861328125
5.663	0.19399658203125	-0.07424560546875	9.71180419921875	0.06103515625	-0.19073486328125	0.30517578125
5.672	0.16525634765625	-0.086220703125	9.7381494140625	0.213623046875	0.38909912109375	0.762939453125
5.682	0.18681152343750002	-0.15088623046875002	9.77886474609375	0.335693359375	2.23541259765625	1.70135498046875
5.692	-0.41194335937500004	-1.67890869140625	9.927355957031251	0.06866455078125	-1.15203857421875	0.86212158203125
5.701	-0.009580078125	-0.1676513671875	9.81	-0.16021728515625	-2.1820068359375	0.60272216796875
5.711	0.09340576171875001	-1.4082714843750002	9.7285693359375	-0.20599365234375	0.22125244140625	0.12969970703125
5.721	0.21555175781250002	-1.178349609375	9.8243701171875	-0.69427490234375	0.7171630859375	0.14495849609375
5.73	0.10059082031250001	-0.7807763671875	9.79802490234375	-0.02288818359375	-0.0152587890625	0.02288818359375
5.74	0.01676513671875	-0.74006103515625	9.8243701171875	-0.25177001953125	1.0833740234375	-0.14495849609375
5.749	0.25626708984375	-0.9268725585937501	9.72138427734375	0.1068115234375	-1.3885498046875	0.64849853515625
5.76	0.21794677734375	-1.2717553710937501	9.76449462890625	-1.220703125	1.27410888671875	0.335693359375
5.77	0.08382568359375	-0.7664062500000001	9.99920654296875	-0.6561279296875	-0.396728515625	0.457763671875
5.78	0.37122802734375004	-0.929267578125	9.40524169921875	-0.6561279296875	3.4332275390625	-0.9918212890625
5.791	-0.99872314453125	-1.0921289062500001	10.406359863281251	-1.2969970703125	2.7313232421875	0.35858154296875
5.801	-1.44898681640625	-0.21794677734375	10.77519287109375	-0.7171630859375	-8.97979736328125	-0.30517578125
5.811	1.2022998046875	-0.17244140625	9.819580078125	0.0	6.59942626953125	0.72479248046875
5.821	-0.08382568359375	-0.7664062500000001	10.008786621093751	-0.75531005859375	1.79290771484375	0.3204345703125
5.832	0.948427734375	-0.17004638671875	9.398056640625	-0.11444091796875	9.58251953125	-1.373291015625
5.842	-0.18202148437500001	-0.21076171875000002	10.159672851562501	-0.38909912109375	2.96783447265625	-0.31280517578125
5.853	-1.08973388671875	-0.296982421875	10.43989013671875	-0.19073486328125	-1.25885009765625	-0.86212158203125
5.864	-1.1567944335937501	-0.27542724609375	10.166857910156251	-1.24359130859375	-6.66046142578125	-0.72479248046875
5.874	0.00718505859375	-1.2118798828125001	10.04231689453125	-1.04522705078125	-4.2572021484375	0.17547607421875
5.883	0.39038818359375	0.27542724609375	9.72617431640625	-1.15966796875	4.7607421875	1.190185546875
5.895	-1.41545654296875	0.73527099609375	11.050620117187501	2.25830078125	-6.11114501953125	0.885009765625
5.904	0.5652246093750001	0.44307861328125003	9.568103027343751	-0.69427490234375	5.0811767578125	0.7476806640625
5.914	-0.22273681640625	0.28500732421875	9.877060546875	0.69427490234375	-1.67083740234375	1.0833740234375
5.923	-0.25626708984375	-0.11017089843750001	9.86987548828125	0.1983642578125	-10.32257080078125	0.0152587890625
5.934	1.5567626953125	0.023950195312500002	8.7801416015625	2.3040771484375	11.41357421875	0.52642822265625
5.943	-0.20357666015625	-0.04071533203125	9.8914306640625	-0.93841552734375	5.18035888671875	0.64849853515625
5.954	-0.814306640625	-0.124541015625	10.40156982421875	-0.99945068359375	-5.10406494140625	-0.29754638671875
5.964	-0.1484912109375	-0.5053491210937501	10.279423828125001	-0.0457763671875	-5.65338134765625	-1.01470947265625
5.975	-0.296982421875	-0.050295410156250005	10.248288574218751	2.32696533203125	6.96563720703125	-0.11444091796875
5.984	-0.9196875	0.81670166015625	10.2171533203125	0.31280517578125	0.80108642578125	0.54168701171875
5.994	-0.3209326171875	0.5245092773437501	10.1500927734375	1.06048583984375	-5.97381591796875	0.57220458984375
6.004	1.65016845703125	0.8574169921875	8.691525878906251	0.52642822265625	11.31439208984375	-0.54168701171875
6.014	-0.5652246093750001	1.0370434570312501	10.04231689453125	0.30517578125	5.1422119140625	-0.6256103515625
6.025	-0.70174072265625	1.5232324218750002	10.260263671875	0.3204345703125	-1.54876708984375	-0.0762939453125
6.035	-0.85981201171875	1.37953125	10.2842138671875	-1.617431640625	-4.0740966796875	0.03814697265625
6.045	-0.9005273437500001	1.7339941406250001	10.459050292968751	-0.030517578125	-4.7607421875	0.17547607421875
6.055	0.3065625	1.753154296875	9.69743408203125	-0.1220703125	-6.32476806640625	-0.274658203125
6.066	0.98914306640625	1.8824853515625002	9.1920849609375	-0.885009765625	5.889892578125	-0.54168701171875
6.076	-0.60114990234375	1.312470703125	10.37761962890625	-0.72479248046875	-4.55474853515625	0.16021728515625
6.085	0.5125341796875	0.00239501953125	9.49146240234375	-0.4119873046875	-1.3580322265625	0.1678466796875
6.094	0.7280859375000001	-0.052690429687500005	9.433981933593751	-0.274658203125	3.4332275390625	0.0457763671875
6.104	0.354462890625	-0.028740234375	9.61600341796875	-0.74005126953125	3.47900390625	0.0
6.114	-0.19160156250000002	0.45984375	9.972861328125001	-1.22833251953125	-1.06048583984375	-0.8544921875
6.124	0.23231689453125	1.04183349609375	9.69743408203125	-0.335693359375	-0.87738037109375	-0.26702880859375
6.134	0.27303222656250004	1.6813037109375002	9.68306396484375	0.06103515625	3.36456298828125	0.41961669921875
6.142	0.05987548828125	1.01309326171875	9.88424560546875	-0.0152587890625	0.7781982421875	0.5950927734375
6.153	-0.12214599609375	0.4646337890625	10.02315673828125	-0.152587890625	0.2288818359375	0.67138671875
6.162	-0.45265869140625004	0.28740234375	10.03752685546875	-0.41961669921875	-3.34930419921875	0.09918212890625
6.171	0.050295410156250005	0.51013916015625	9.89382568359375	0.96893310546875	1.41143798828125	0.48828125
6.18	0.81670166015625	0.8047265625000001	9.4315869140625	-0.48065185546875	0.63323974609375	0.03814697265625
6.191	0.29937744140625	0.67300048828125	9.67587890625	-0.8697509765625	-0.89263916015625	0.23651123046875
6.201	0.08382568359375	0.6849755859375001	9.84113525390625	-0.762939453125	-1.53350830078125	0.640869140625
6.21	0.51971923828125	0.7328759765625	9.532177734375	-1.373291015625	0.42724609375	0.49591064453125
6.221	-0.5676196289062501	0.6825805664062501	10.23870849609375	-1.7547607421875	-2.60162353515625	0.6866455078125
6.232	0.086220703125	0.7232958984375001	9.87945556640625	-2.532958984375	-6.28662109375	-0.3662109375
6.242	0.42152343750000004	0.20597167968750002	9.7716796875	-1.4190673828125	2.78472900390625	-0.9002685546875
6.251	-0.43828857421875	0.0431103515625	10.06626708984375	-0.701904296875	-0.19073486328125	-0.8697509765625
6.261	-0.8861572265625001	0.047900390625000004	10.226733398437501	-1.0223388671875	-5.462646484375	-0.16021728515625
6.273	-0.25387207031250003	0.15567626953125	10.23870849609375	-1.46484375	-11.11602783203125	0.81634521484375
6.282	0.488583984375	0.20597167968750002	9.86508544921875	-0.58746337890625	-1.312255859375	-0.02288818359375
6.292	1.2693603515625	0.45265869140625004	9.225615234375	-0.55694580078125	4.8675537109375	-0.2288818359375
6.302	0.79275146484375	-0.124541015625	9.13939453125	-1.91497802734375	1.9683837890625	0.6103515625
6.312	-1.0106982421875002	-0.8071215820312501	10.614726562500001	0.63323974609375	-8.01849365234375	2.044677734375
6.323	1.0202783203125	0.0431103515625	9.134604492187501	-0.17547607421875	2.92205810546875	-0.2899169921875
6.332	0.4742138671875	0.11256591796875001	9.6183984375	-0.396728515625	3.15093994140625	-0.152587890625
6.342	0.40954833984375	0.28500732421875	9.6710888671875	-0.5035400390625	3.4027099609375	-0.213623046875
6.351	-0.27542724609375	0.20118164062500002	9.82676513671875	-0.49591064453125	1.52587890625	-0.7781982421875
6.363	-0.81670166015625	-0.73527099609375	10.37282958984375	-1.48773193359375	-5.54656982421875	-0.5950927734375
6.373	0.49337402343750003	-1.13763427734375	9.776469726562501	-0.48828125	3.6773681640625	-0.51116943359375
6.384	-0.6035449218750001	-0.9795629882812501	10.128537597656251	-0.3662109375	0.75531005859375	-0.89263916015625
6.393	0.469423828125	-0.22513183593750002	9.73575439453125	0.48828125	-0.67901611328125	-0.48065185546875
6.404	0.8837622070312501	-0.37362304687500003	9.40763671875	-0.2593994140625	1.495361328125	0.213623046875
6.413	0.6753955078125	0.18920654296875	9.410031738281251	-0.16021728515625	7.07244873046875	0.4730224609375
6.423	-0.641865234375	0.1149609375	10.29139892578125	-0.335693359375	3.0975341796875	0.31280517578125
6.433	-0.17483642578125	-0.06466552734375	10.06626708984375	-0.0152587890625	-2.8076171875	1.03759765625
6.443	0.29458740234375	-0.8238867187500001	9.67587890625	0.09918212890625	0.81634521484375	3.5247802734375
6.453	-0.5700146484375	-0.4263134765625	10.054291992187501	-0.0762939453125	3.662109375	4.98199462890625
6.464	-1.22385498046875	-1.57831787109375	10.44947021484375	-1.15203857421875	-12.68768310546875	4.57763671875
6.475	0.6083349609375001	-0.775986328125	9.29507080078125	-0.41961669921875	1.2054443359375	3.8604736328125
6.486	-0.3688330078125	-1.19990478515625	10.174042968750001	-1.0833740234375	-3.77655029296875	2.655029296875
6.497	0.25387207031250003	-1.1639794921875	9.762099609375001	-0.8087158203125	-4.6234130859375	1.739501953125
6.506	0.33290771484375004	-0.354462890625	9.6710888671875	0.4425048828125	2.838134765625	0.213623046875
6.515	-0.023950195312500002	-0.1484912109375	9.877060546875	0.823974609375	2.17437744140625	0.0762939453125
6.525	0.124541015625	-0.24908203125	9.82676513671875	1.85394287109375	6.4849853515625	0.35858154296875
6.535	-0.32332763671875003	-2.16270263671875	9.76449462890625	0.29754638671875	3.4942626953125	1.9989013671875
6.545	0.52929931640625	-1.56873779296875	9.941726074218751	0.0	-1.7547607421875	2.5177001953125
6.556	0.43110351562500004	-2.1507275390625002	9.69264404296875	-0.99945068359375	-1.19781494140625	2.9754638671875
6.566	1.04662353515625	-2.47166015625	9.9105908203125	-0.57220458984375	-4.364013671875	7.110595703125
6.577	0.16525634765625	-1.68369873046875	9.881850585937501	0.0762939453125	0.86212158203125	-2.5177001953125
6.587	1.0346484375	-0.29458740234375	9.2495654296875	0.11444091796875	7.049560546875	-3.91387939453125
6.597	-0.0814306640625	-0.32811767578125	9.8914306640625	-1.1749267578125	0.213623046875	-9.1094970703125
6.608	1.0873388671875	-0.871787109375	9.18010986328125	-0.5340576171875	-1.068115234375	-7.9345703125
6.62	-0.8190966796875	-0.5987548828125	10.241103515625001	0.54168701171875	-2.99072265625	-7.75909423828125
6.631	0.70174072265625	-0.7855664062500001	9.49625244140625	1.3275146484375	10.45989990234375	-8.43048095703125
6.643	-2.308798828125	-0.8813671875000001	10.566826171875	-3.50189208984375	-15.31219482421875	-10.47515869140625
6.654	2.45489501953125	-0.85023193359375	8.655600585937501	0.80108642578125	11.49749755859375	-11.90948486328125
6.666	-0.38559814453125	-0.833466796875	10.73208251953125	-0.762939453125	-7.24029541015625	-13.5498046875
6.677	-1.2166699218750001	0.32811767578125	10.607541503906251	-3.07464599609375	22.552490234375	-18.05877685546875
6.688	0.6849755859375001	0.124541015625	9.448352050781251	-0.946044921875	-20.233154296875	-15.54107666015625
6.699	0.536484375	0.4263134765625	9.73575439453125	-0.8087158203125	16.4337158203125	-13.214111328125
6.709	0.0622705078125	0.55324951171875	10.09740234375	1.190185546875	-7.5225830078125	-7.080078125
6.719	1.36037109375	0.7280859375000001	9.07951904296875	0.93841552734375	9.5977783203125	0.83160400390625
6.729	-1.178349609375	0.7280859375000001	10.39677978515625	2.22015380859375	3.85284423828125	1.80816650390625
6.739	0.28021728515625	0.26345214843750003	9.402846679687501	1.068115234375	-2.31170654296875	2.7923583984375
6.749	1.02267333984375	0.24908203125	9.2399853515625	0.9765625	7.02667236328125	3.13568115234375
6.759	0.44786865234375	0.54366943359375	10.00399658203125	0.74005126953125	3.96728515625	5.80596923828125
6.768	0.27542724609375	0.44307861328125003	10.001601562500001	1.8463134765625	-1.190185546875	7.31658935546875
6.778	0.38320312500000003	1.09931396484375	9.560917968750001	1.07574462890625	3.326416015625	7.6904296875
6.79	-1.1903247070312502	1.89446044921875	10.06626708984375	-0.72479248046875	-5.8746337890625	6.317138671875
6.799	-0.10059082031250001	1.8441650390625002	9.58726318359375	0.12969970703125	-0.16021728515625	6.46209716796875
6.809	-0.36643798828125	1.5471826171875	9.80281494140625	0.1373291015625	2.50244140625	5.47027587890625
6.819	-0.53887939453125	1.1088940429687502	10.114167480468751	0.274658203125	-4.2724609375	6.14166259765625
6.829	0.536484375	0.5867797851562501	9.381291503906251	0.08392333984375	1.18255615234375	5.48553466796875
6.838	0.239501953125	0.6274951171875001	9.9010107421875	0.3814697265625	1.18255615234375	5.0506591796875
6.847	0.03592529296875	0.51732421875	9.8914306640625	-0.02288818359375	-2.14385986328125	2.83050537109375
6.857	0.028740234375	0.5843847656250001	9.716594238281251	-0.213623046875	-1.33514404296875	0.701904296875
6.866	0.076640625	0.622705078125	9.9249609375	-0.274658203125	-0.1373291015625	-1.25885009765625
6.878	0.3879931640625	0.5077441406250001	9.73575439453125	-0.80108642578125	-1.40380859375	-1.53350830078125
6.888	-0.20118164062500002	0.09340576171875001	9.74533447265625	-0.78582763671875	0.20599365234375	-3.570556640625
6.897	0.48139892578125004	0.8262817382812501	9.7956298828125	-0.12969970703125	1.89971923828125	-3.18145751953125
6.907	0.30177246093750004	1.9878662109375	9.6710888671875	-0.22125244140625	1.64794921875	-1.4495849609375
6.918	-0.067060546875	1.69327880859375	9.84113525390625	-0.16021728515625	1.9378662109375	1.5106201171875
6.928	0.21794677734375	0.85981201171875	10.02794677734375	0.640869140625	-1.922607421875	6.6680908203125
6.938	0.689765625	0.737666015625	9.71419921875	0.1068115234375	-0.86212158203125	9.5977783203125
6.948	0.8765771484375	0.6514453125	9.553732910156251	0.09918212890625	2.87628173828125	11.260986328125
6.959	-0.42870849609375	0.9843530273437501	9.93214599609375	-0.54931640625	-0.06866455078125	6.5155029296875
6.969	-0.34248779296875004	1.47772705078125	10.03752685546875	1.007080078125	4.43267822265625	5.02777099609375
6.978	0.25147705078125	1.07296875	9.50583251953125	1.33514404296875	2.6702880859375	3.0059814453125
6.989	1.2310400390625	0.95561279296875	8.9525830078125	2.15911865234375	10.55145263671875	7.88116455078125
7.0	1.542392578125	0.60114990234375	9.14657958984375	0.74005126953125	14.67132568359375	8.23974609375
7.01	-0.6179150390625	0.55803955078125	10.114167480468751	0.81634521484375	-1.74713134765625	10.3912353515625
7.021	-0.7232958984375001	1.12805419921875	10.0351318359375	-4.5623779296875	2.01416015625	7.43865966796875
7.031	-1.62142822265625	0.43110351562500004	11.18713623046875	1.16729736328125	-15.83099365234375	9.74273681640625
7.043	0.9460327148437501	0.7640112304687501	8.966953125	-1.739501953125	7.9803466796875	6.744384765625
7.053	0.23710693359375	-0.143701171875	9.915380859375	-1.62506103515625	-3.9520263671875	13.17596435546875
7.063	2.1579125976562503	-0.28021728515625	8.504714355468751	1.42669677734375	3.570556640625	16.15142822265625
7.073	0.46702880859375	0.5269042968750001	9.398056640625	2.38800048828125	25.87127685546875	22.07183837890625
7.084	-2.0453466796875	0.37601806640625	11.30688720703125	-0.4425048828125	-2.4566650390625	18.7225341796875
7.095	0.34727783203125	-0.63228515625	9.45793212890625	0.87738037109375	-2.29644775390625	15.14434814453125
7.105	-0.13412109375	0.14130615234375002	10.31055908203125	-3.27301025390625	-1.60980224609375	9.185791015625
7.115	1.53520751953125	-0.31374755859375003	8.995693359375	0.48828125	-5.1116943359375	5.42449951171875
7.127	0.852626953125	-1.5855029296875	9.2351953125	1.31988525390625	19.3939208984375	3.74603271484375
7.137	-0.24668701171875002	-0.70174072265625	10.394384765625	3.1585693359375	5.53131103515625	5.889892578125
7.147	-0.076640625	-1.5064672851562502	9.948911132812501	-0.3662109375	-1.53350830078125	2.1820068359375
7.158	-0.46223876953125004	-0.6083349609375001	9.82676513671875	0.48828125	-8.758544921875	3.86810302734375
7.169	0.4167333984375	-0.680185546875	9.402846679687501	0.17547607421875	14.6026611328125	-0.9613037109375
7.179	-1.561552734375	-0.7328759765625	10.796748046875	0.74005126953125	-5.4473876953125	0.152587890625
7.19	0.58198974609375	-1.1543994140625	9.2878857421875	-0.80108642578125	-3.875732421875	-1.77764892578125
7.2	-0.1772314453125	-1.41066650390625	9.8052099609375	0.23651123046875	4.38690185546875	-4.547119140625
7.211	-0.67779052734375	-1.5878979492187502	10.14769775390625	-0.03814697265625	-6.3018798828125	-2.44903564453125
7.221	1.32205078125	-1.983076171875	9.254355468750001	0.09918212890625	4.24957275390625	-0.244140625
7.231	0.07903564453125	-1.9112255859375	9.874665527343751	-0.25177001953125	3.08990478515625	2.01416015625
7.241	-0.3448828125	-2.0645068359375003	10.015971679687501	0.0457763671875	0.25177001953125	1.9073486328125
7.25	-0.33290771484375004	-0.28500732421875	9.90580078125	-0.091552734375	-0.64849853515625	0.46539306640625
7.26	0.0143701171875	-0.08861572265625	9.77407470703125	-0.1068115234375	-0.06103515625	0.3509521484375
7.27	-0.229921875	-0.77838134765625	10.0447119140625	-0.0152587890625	-2.89154052734375	2.410888671875
7.28	0.24908203125	-2.61775634765625	9.580078125	0.34332275390625	-1.65557861328125	16.876220703125
7.291	0.7232958984375001	-1.93757080078125	9.709409179687501	0.213623046875	1.312255859375	25.59661865234375
7.302	0.06945556640625	-1.4034814453125	9.78844482421875	0.92315673828125	0.1373291015625	30.12847900390625
7.311	-0.0047900390625	-1.7771044921875	9.33099609375	1.0223388671875	2.50244140625	29.64019775390625
7.322	-1.32444580078125	-1.6908837890625001	10.0447119140625	-0.25177001953125	1.33514404296875	24.48272705078125
7.333	-0.63947021484375	-2.11001220703125	9.81718505859375	0.1220703125	-7.97271728515625	19.04296875
7.344	0.09580078125000001	-2.16270263671875	10.106982421875001	0.7171630859375	0.66375732421875	12.6495361328125
7.354	0.12693603515625002	-2.41657470703125	9.1537646484375	-0.7781982421875	3.0059814453125	4.29534912109375
7.364	-0.028740234375	-2.4093896484375	9.90819580078125	-0.8392333984375	2.83050537109375	-2.655029296875
7.375	1.95673095703125	-1.7028588867187502	9.656718750000001	1.57928466796875	10.07080078125	-8.81195068359375
7.387	-2.18665283203125	-1.3483959960937502	10.399174804687501	0.80108642578125	2.55584716796875	-19.5465087890625
7.398	0.05748046875	-1.2765454101562501	9.02682861328125	-4.150390625	-13.24462890625	-26.17645263671875
7.408	-0.9029223632812501	0.00239501953125	10.5811962890625	1.02996826171875	6.96563720703125	-30.8837890625
7.418	0.35685791015625	0.0622705078125	10.50695068359375	-1.64794921875	-4.302978515625	-30.6854248046875
7.43	0.62031005859375	-0.07424560546875	8.796906738281251	1.434326171875	-0.18310546875	-27.59552001953125
7.441	-1.32205078125	-0.11735595703125	10.57640625	4.1351318359375	9.22393798828125	-21.9268798828125
7.452	1.04662353515625	0.814306640625	10.3416943359375	-3.50189208984375	-13.0157470703125	-19.49310302734375
7.462	0.49097900390625004	0.3784130859375	9.71180419921875	-0.9765625	-1.9073486328125	-21.11053466796875
7.474	-0.13172607421875002	0.61552001953125	9.666298828125	-2.1820068359375	-2.92205810546875	-17.26531982421875
7.485	-0.44068359375000005	2.1507275390625002	9.86987548828125	-2.1514892578125	-10.59722900390625	-17.69256591796875
7.495	0.0431103515625	1.57352783203125	9.8052099609375	0.4119873046875	9.1705322265625	-18.31817626953125
7.507	-1.389111328125	1.79865966796875	10.97158447265625	-1.068115234375	-17.15850830078125	-19.14215087890625
7.519	1.580712890625	2.7542724609375	8.954978027343751	-1.18255615234375	9.65118408203125	-16.79229736328125
7.529	0.0143701171875	2.711162109375	10.20996826171875	-0.99945068359375	-14.03045654296875	-7.60650634765625
7.539	1.1448193359375	3.01532958984375	8.97892822265625	-0.81634521484375	6.87408447265625	-2.655029296875
7.55	-0.65384033203125	2.8788134765625	10.36324951171875	-0.55694580078125	-3.6468505859375	5.18798828125
7.56	0.2442919921875	3.0823901367187503	9.79802490234375	0.58746337890625	-4.6844482421875	6.4697265625
7.57	1.4226416015625	2.529140625	9.381291503906251	-0.3509521484375	2.81524658203125	4.96673583984375
7.58	0.45265869140625004	-0.028740234375	9.65911376953125	-0.74005126953125	3.42559814453125	-1.007080078125
7.591	-0.5269042968750001	2.79498779296875	10.356064453125	-0.885009765625	-6.78253173828125	-5.2642822265625
7.602	0.296982421875	4.32301025390625	9.55852294921875	-1.30462646484375	2.6702880859375	-15.4876708984375
7.613	-0.613125	4.6008325195312505	9.740544433593751	-1.6937255859375	9.42230224609375	-15.899658203125
7.623	0.055085449218750006	3.994892578125	10.293793945312501	-0.74005126953125	-8.55255126953125	-3.80706787109375
7.634	1.2502001953125002	3.23088134765625	9.33818115234375	1.6326904296875	12.64190673828125	8.331298828125
7.645	-0.613125	3.16382080078125	10.49737060546875	-0.11444091796875	-1.617431640625	15.2587890625
7.655	0.5125341796875	2.2106030273437502	9.7189892578125	-0.213623046875	4.06646728515625	19.317626953125
7.666	-1.2765454101562501	2.42615478515625	10.279423828125001	-3.13568115234375	-6.35528564453125	18.06640625
7.677	0.14609619140625002	2.16509765625	9.8339501953125	-1.53350830078125	9.613037109375	17.40264892578125
7.689	-0.2442919921875	1.1735595703125001	9.3262060546875	-0.89263916015625	-13.74053955078125	18.69964599609375
7.699	2.4381298828125	0.73527099609375	8.258027343750001	1.5716552734375	10.18524169921875	14.67132568359375
7.71	-2.5914111328125	-0.79275146484375	10.92847412109375	0.80108642578125	1.41143798828125	11.54327392578125
7.72	4.615202636718751	0.5484594726562501	6.667734375	-4.33349609375	22.4151611328125	-20.08056640625
7.733	-4.63915283203125	-0.09340576171875001	12.43254638671875	-3.44085693359375	-14.01519775390625	-22.62115478515625
7.744	5.79355224609375	-3.20693115234375	6.35398681640625	-2.13623046875	28.99932861328125	-18.39447021484375
7.755	-3.3458422851562504	-5.027145996093751	12.99777099609375	-0.35858154296875	-14.9993896484375	5.6915283203125
7.766	4.069138183593751	-2.74229736328125	7.5251513671875	-0.30517578125	10.498046875	12.15362548828125
7.778	-2.481240234375	-4.27031982421875	11.32365234375	-2.86102294921875	-6.8511962890625	12.38250732421875
7.788	1.101708984375	-5.16126708984375	9.18489990234375	1.0528564453125	4.119873046875	4.87518310546875
7.798	0.13651611328125002	-4.727768554687501	9.800419921875001	-1.89971923828125	-3.9520263671875	2.9296875
7.81	-0.49576904296875	-4.588857421875001	9.685458984375	-0.28228759765625	-1.77764892578125	-1.800537109375
7.82	-0.48379394531250003	-0.5412744140625	9.77886474609375	0.29754638671875	5.33294677734375	-2.349853515625
7.831	-2.0477416992187503	-3.4224829101562504	10.2842138671875	-1.79290771484375	-1.3885498046875	-6.8817138671875
7.842	0.7280859375000001	-5.11576171875	9.62558349609375	-1.5106201171875	-2.60162353515625	-18.4173583984375
7.855	-3.1590307617187503	-5.0463061523437505	11.927197265625	-3.7841796875	-13.20648193359375	-15.48004150390625
7.865	4.9265551757812505	-5.805527343750001	6.792275390625	0.3662109375	21.453857421875	-14.9993896484375
7.876	-0.15328125	-4.41881103515625	10.28181884765625	-0.1678466796875	-7.8125	-4.38690185546875
7.888	-0.8430468750000001	-4.981640625	10.353669433593751	-2.12860107421875	-9.60540771484375	-9.88006591796875
7.899	0.25147705078125	-5.0439111328125	10.42552001953125	-1.312255859375	-5.40924072265625	0.23651123046875
7.91	-0.17244140625	-1.8657202148437502	8.6747607421875	0.66375732421875	17.1966552734375	-11.505126953125
7.921	1.5064672851562502	-2.40220458984375	9.13939453125	-0.244140625	20.538330078125	-19.73724365234375
7.932	-0.910107421875	-1.43701171875	12.406201171875	-1.71661376953125	-13.97705078125	-19.75250244140625
7.944	1.5495776367187502	-0.53408935546875	8.9525830078125	4.3792724609375	4.8828125	-29.84619140625
7.955	-0.929267578125	1.3148657226562501	11.21108642578125	-1.16729736328125	15.00701904296875	-37.6434326171875
7.967	-0.6370751953125	2.040556640625	10.13332763671875	-4.35638427734375	-16.693115234375	-36.5447998046875
7.979	-0.6059399414062501	3.0488598632812502	11.256591796875	-4.5928955078125	-5.34820556640625	-35.22491455078125
7.989	0.4263134765625	3.71946533203125	8.68194580078125	0.75531005859375	4.21142578125	-16.70074462890625
7.999	-0.7280859375000001	5.37681884765625	11.086545410156251	2.49481201171875	-2.655029296875	1.373291015625
8.01	0.9580078125	6.0498193359375	9.462722167968751	8.11767578125	17.364501953125	18.13507080078125
8.022	1.35797607421875	7.69040771484375	8.55261474609375	11.627197265625	29.72412109375	8.73565673828125
8.032	-0.62031005859375	9.33818115234375	9.24717041015625	3.70025634765625	-5.035400390625	3.16619873046875
8.043	1.5328125000000001	7.1419482421875005	10.219548339843751	-2.8839111328125	-2.05230712890625	0.26702880859375
8.053	3.017724609375	6.957531738281251	8.789721679687501	0.640869140625	4.28009033203125	-6.34765625
8.065	-0.335302734375	9.46751220703125	10.353669433593751	-0.92315673828125	6.27899169921875	-3.42559814453125
8.076	-0.00239501953125	8.10714111328125	10.40396484375	-5.279541015625	-9.8114013671875	-8.75091552734375
8.086	-0.83586181640625	8.064030761718751	10.605146484375	0.06866455078125	5.55419921875	11.61956787109375
8.097	-1.7675244140625002	8.265212402343751	10.3416943359375	-0.3509521484375	-9.81903076171875	29.8309326171875
8.109	-0.8238867187500001	6.598278808593751	7.716752929687501	-1.42669677734375	1.8157958984375	52.08587646484375
8.119	-0.39517822265625	4.05476806640625	9.283095703125001	6.35528564453125	4.547119140625	79.986572265625
8.13	-1.3148657226562501	3.8679565429687504	10.76082275390625	-1.50299072265625	17.64678955078125	82.94677734375
8.141	-0.65863037109375	0.028740234375	10.67220703125	-0.57220458984375	-4.75311279296875	90.5303955078125
8.153	1.56394775390625	-2.7255322265625	8.8519921875	5.5084228515625	5.3253173828125	84.98382568359375
8.164	-0.7520361328125	-4.0188427734375	10.2746337890625	-0.48828125	-20.17974853515625	64.84222412109375
8.175	2.54590576171875	-5.7648120117187505	8.4687890625	-1.28173828125	53.131103515625	43.19000244140625
8.187	-9.0388037109375	-7.376660156250001	15.062277832031251	-4.44793701171875	-67.45147705078125	18.68438720703125
8.198	2.8500732421875004	-10.41593994140625	7.34552490234375	-6.82830810546875	7.62176513671875	-4.89044189453125
8.21	-3.669169921875	-10.734477539062501	11.38352783203125	-0.30517578125	-32.2265625	-18.11981201171875
8.221	-0.35206787109375004	-12.14035400390625	9.912985839843751	-0.74005126953125	29.70123291015625	-22.674560546875
8.233	-9.290280761718751	-7.865244140625	12.72952880859375	-1.74713134765625	2.70843505859375	-26.40533447265625
8.245	1.638193359375	-11.970307617187501	8.303532714843751	3.265380859375	17.90618896484375	-42.18292236328125
8.257	-0.75922119140625	-10.356064453125	9.3836865234375	-2.9449462890625	-1.64031982421875	-34.423828125
8.269	-0.8861572265625001	-10.91889404296875	9.09388916015625	-5.157470703125	-12.50457763671875	-40.22216796875
8.282	-1.561552734375	-10.8494384765625	10.13811767578125	-1.38092041015625	-17.15087890625	-47.454833984375
8.294	-3.266806640625	-9.01245849609375	11.484118652343751	-1.25885009765625	-15.92254638671875	-67.840576171875
8.305	1.4298266601562502	-5.19479736328125	9.148974609375001	-4.2266845703125	44.7235107421875	-93.32275390625
8.317	4.47150146484375	-1.59747802734375	7.33833984375	6.4697265625	-22.7813720703125	-98.88458251953125
8.329	-1.1136840820312501	1.7938696289062501	11.9128271484375	-6.8511962890625	19.378662109375	-114.20440673828125
8.341	4.042792968750001	10.166857910156251	6.7060546875	-1.800537109375	-20.56121826171875	-113.30413818359375
8.352	-4.4691064453125	18.08479248046875	13.00735107421875	0.4730224609375	6.14166259765625	-97.61810302734375
8.364	3.16382080078125	19.61940124511719	6.95274169921875	2.2430419921875	-7.98797607421875	-47.8973388671875
8.374	-2.46447509765625	19.61940124511719	10.494975585937501	-4.76837158203125	0.60272216796875	-0.32806396484375
8.385	-4.907395019531251	19.61940124511719	11.6541650390625	2.31170654296875	-23.18572998046875	62.96539306640625
8.397	-1.6477734375000002	19.61940124511719	9.716594238281251	-2.12860107421875	22.552490234375	82.763671875
8.409	-3.1757958984375003	19.61940124511719	10.70813232421875	-6.4544677734375	-17.3187255859375	121.81854248046875
8.42	0.1293310546875	9.2878857421875	7.78620849609375	11.90185546875	36.12518310546875	145.1568603515625
8.432	-5.374423828125	4.052373046875	12.188254394531251	-3.23486328125	-25.07781982421875	153.64837646484375
8.443	0.4167333984375	-3.2787817382812503	7.12039306640625	-0.89263916015625	-5.65338134765625	175.19378662109375
8.456	-4.7804589843750005	-17.37826171875	10.78477294921875	8.575439453125	-57.55615234375	136.41357421875
8.467	2.9075537109375	-19.62	7.2856494140625	-0.8697509765625	9.5672607421875	111.6790771484375
8.478	4.0284228515625005	-19.62	7.7071728515625	6.1187744140625	31.77642822265625	84.96856689453125
8.489	0.15328125	-19.62	9.06993896484375	3.23486328125	17.4102783203125	31.25
8.501	-5.029541015625	-19.40923828125	10.0351318359375	4.21905517578125	13.09967041015625	-19.0582275390625
8.513	0.86939208984375	-19.62	9.08430908203125	-5.828857421875	-6.56890869140625	-40.56549072265625
8.525	-7.079677734375	-19.62	11.7212255859375	-5.08880615234375	-47.1038818359375	-65.582275390625
8.538	-4.77087890625	-14.118640136718751	13.49114501953125	-6.46209716796875	34.9273681640625	-77.72064208984375
8.551	-6.88089111328125	-12.15472412109375	10.85183349609375	-9.9029541015625	-54.3365478515625	-85.2813720703125
8.562	-2.9937744140625	-4.82596435546875	11.41226806640625	-2.8228759765625	-12.2222900390625	-87.7685546875
8.574	-1.0011181640625	-2.0980371093750003	9.93693603515625	-7.171630859375	-4.00543212890625	-106.14013671875
8.587	2.09564208984375	4.83075439453125	9.469907226562501	-9.8724365234375	-17.47894287109375	-145.69854736328125
8.599	-1.8250048828125	17.17947509765625	11.92001220703125	-6.72149658203125	-10.7574462890625	-159.6832275390625
8.61	0.7448510742187501	19.61940124511719	8.856782226562501	-1.7547607421875	24.54376220703125	-157.073974609375
8.623	-2.3375390625000003	19.61940124511719	9.793234863281251	1.54876708984375	8.48388671875	-87.6617431640625
8.634	-4.0284228515625005	19.61940124511719	11.97509765625	4.302978515625	23.3306884765625	14.35089111328125
8.645	-7.9275146484375005	19.61940124511719	11.66135009765625	-4.058837890625	-11.474609375	67.169189453125
8.656	-3.47996337890625	19.61940124511719	9.30465087890625	6.23321533203125	12.51983642578125	158.43963623046875
8.669	-6.4306274414062505	4.981640625	11.390712890625	-3.72314453125	-16.91436767578125	177.31475830078125
8.681	-4.854704589843751	-6.55995849609375	11.385922851562501	2.105712890625	-79.85687255859375	206.3751220703125
8.692	-0.5748046875	-19.62	8.33466796875	9.75799560546875	0.35858154296875	165.313720703125
8.704	2.0549267578125	-19.62	8.092770996093751	4.180908203125	-16.4642333984375	120.68939208984375
8.716	12.2002294921875	-19.62	2.76145751953125	-1.983642578125	64.422607421875	40.6494140625
8.728	-7.695197753906251	-19.62	14.664704589843751	-0.78582763671875	-17.1966552734375	-58.89892578125
8.74	-4.3637255859375	-19.62	11.409873046875001	-9.25445556640625	17.93670654296875	-141.41082763671875
8.753	0.37601806640625	-19.62	6.11448486328125	-21.33941650390625	-33.1878662109375	-209.99908447265625
8.764	-0.67779052734375	-6.888076171875	8.35143310546875	3.65447998046875	15.84625244140625	-218.10150146484375
8.776	-1.4944921875000001	1.5064672851562502	9.194479980468751	6.4697265625	18.157958984375	-132.10296630859375
8.788	-1.8776953125	6.07616455078125	8.94060791015625	-3.0975341796875	-13.81683349609375	-137.3748779296875
8.8	-0.38080810546875005	19.61940124511719	8.9813232421875	4.0130615234375	18.19610595703125	-101.92108154296875
8.811	-3.6452197265625004	19.61940124511719	10.643466796875	-6.2713623046875	13.60321044921875	-102.996826171875
8.822	-4.71100341796875	19.61940124511719	10.413544921875001	-4.57763671875	0.16021728515625	-51.61285400390625
8.834	-0.28740234375	19.61940124511719	5.91330322265625	5.39398193359375	97.54180908203125	49.69024658203125
8.845	-14.252761230468751	19.61940124511719	14.753320312500001	5.77545166015625	-5.72967529296875	79.071044921875
8.857	-4.33259033203125	19.61940124511719	8.63404541015625	-5.615234375	5.43212890625	188.83514404296875
8.868	-7.7742333984375005	14.640754394531251	12.406201171875	13.64898681640625	25.32958984375	218.1549072265625
8.881	-2.366279296875	-7.32636474609375	7.781418457031251	16.845703125	-20.65277099609375	249.99237060546875
8.893	-0.689765625	-18.99489990234375	11.752360839843751	15.17486572265625	37.689208984375	234.21478271484375
8.904	1.40108642578125	-19.62	8.17420166015625	3.89862060546875	-15.31219482421875	210.33477783203125
8.916	-3.31710205078125	-19.62	12.724738769531251	13.275146484375	-51.47552490234375	142.6239013671875
8.928	1.8441650390625002	-19.62	11.601474609375	15.48004150390625	75.67596435546875	-2.2125244140625
8.941	-5.99712890625	-19.62	15.002402343750001	-13.275146484375	-19.9737548828125	-61.10382080078125
8.953	1.35797607421875	-19.62	9.912985839843751	-3.71551513671875	50.04119873046875	-210.9527587890625
8.966	-2.6105712890625	-19.62	11.72841064453125	-13.46588134765625	-21.636962890625	-225.3875732421875
8.978	-2.1698876953125	-9.853110351562501	6.557563476562501	-10.96343994140625	-19.04296875	-250.0
8.991	-5.2259326171875005	7.9203295898437505	11.52722900390625	-11.7950439453125	-38.33770751953125	-250.0
9.004	-5.61632080078125	19.61940124511719	13.33786376953125	-15.9912109375	21.96502685546875	-229.4921875
9.015	-3.84879638671875	19.61940124511719	6.677314453125001	-1.983642578125	-4.05120849609375	-156.07452392578125
9.027	-8.82085693359375	19.61940124511719	16.5783251953125	17.0440673828125	25.33721923828125	-49.25537109375
9.038	0.88855224609375	19.61940124511719	4.4810815429687505	4.486083984375	99.1973876953125	52.30712890625
9.051	-14.17612060546875	19.61940124511719	15.069462890625001	-3.10516357421875	-20.7061767578125	128.875732421875
9.062	-5.446274414062501	19.61940124511719	7.070097656250001	5.16510009765625	19.744873046875	238.15155029296875
9.074	-12.05413330078125	14.64554443359375	10.8494384765625	-11.61956787109375	-40.84014892578125	249.99237060546875
9.085	-3.4057177734375004	-15.840659179687501	5.087021484375001	9.21630859375	10.23101806640625	249.99237060546875
9.098	-3.4440380859375	-19.62	13.33786376953125	11.1236572265625	-5.18798828125	249.99237060546875
9.11	-2.62733642578125	-19.62	9.177714843750001	8.55255126953125	-62.00408935546875	200.62255859375
9.122	-9.15136962890625	-19.62	14.72697509765625	-6.0577392578125	-71.6094970703125	35.80474853515625
9.134	1.8920654296875001	-19.62	7.776628417968751	-5.98907470703125	2.25830078125	-96.45843505859375
9.147	-6.078559570312501	-19.62	8.861572265625	-5.37872314453125	-31.0516357421875	-200.0274658203125
9.159	2.375859375	-19.62	6.74197998046875	-15.67840576171875	-21.0418701171875	-250.0
9.171	-7.85326904296875	-11.49609375	10.6961572265625	-14.74761962890625	5.95855712890625	-250.0
9.184	-9.2208251953125	6.37314697265625	9.992021484375	-6.43157958984375	-67.81768798828125	-250.0
9.196	-4.79243408203125	19.61940124511719	6.54079833984375	-5.2947998046875	24.16229248046875	-250.0
9.208	-7.182663574218751	19.61940124511719	8.18857177734375	-0.79345703125	12.55035400390625	-237.34283447265625
9.22	-10.83746337890625	19.61940124511719	10.423125	4.24957275390625	-0.06866455078125	-103.43170166015625
9.231	-5.973178710937501	19.61940124511719	2.62733642578125	11.77215576171875	94.879150390625	-5.5084228515625
9.243	-17.00224365234375	19.61940124511719	15.577207031250001	-0.335693359375	13.00048828125	121.7193603515625
9.254	-12.787009277343751	19.61940124511719	0.3688330078125	15.41900634765625	23.39935302734375	249.99237060546875
9.267	-10.8590185546875	10.427915039062501	19.615209960937502	-4.0130615234375	-23.62060546875	249.99237060546875
9.278	-5.16126708984375	-19.62	3.7386254882812504	7.904052734375	-10.4827880859375	249.99237060546875
9.29	-3.8511914062500003	-19.62	13.58215576171875	17.52471923828125	-35.9344482421875	249.99237060546875
9.303	4.734953613281251	-19.62	5.44866943359375	13.26751708984375	45.745849609375	235.42022705078125
9.313	-0.01676513671875	-19.62	11.2326416015625	-2.6397705078125	35.1104736328125	19.92034912109375
9.325	11.50806884765625	-19.62	3.60929443359375	-10.2386474609375	39.17694091796875	-157.18841552734375
9.337	4.84991455078125	-19.62	4.68226318359375	-13.61083984375	46.83685302734375	-250.0
9.35	-4.42360107421875	-19.62	10.870993652343751	-19.38629150390625	-4.09698486328125	-250.0
9.362	-7.539521484375	-4.65352294921875	12.85646484375	-12.6953125	36.41510009765625	-250.0
9.375	-9.838740234375	12.741503906250001	13.541440429687501	-7.30133056640625	-27.47344970703125	-250.0
9.387	-6.868916015625	19.61940124511719	9.120234375	0.40435791015625	40.3594970703125	-244.19403076171875
9.399	-8.87833740234375	19.61940124511719	8.416098632812501	-0.00762939453125	-22.49908447265625	-207.0159912109375
9.41	-8.34185302734375	19.61940124511719	10.193203125	1.434326171875	28.58734130859375	-156.9976806640625
9.423	-10.41114990234375	19.61940124511719	10.95721435546875	-9.521484375	-29.8004150390625	-53.56597900390625
9.435	-8.26042236328125	19.61940124511719	9.208850097656251	3.70025634765625	37.261962890625	76.1871337890625
9.447	-15.07185791015625	19.61940124511719	8.52626953125	-13.9312744140625	-42.6788330078125	209.14459228515625
9.459	-10.2075732421875	13.80728759765625	10.0734521484375	-14.190673828125	-6.5765380859375	249.99237060546875
9.472	-6.591093750000001	-15.203583984375001	5.839057617187501	8.17108154296875	-4.0283203125	249.99237060546875
9.483	1.9495458984375	-19.62	13.3881591796875	19.0582275390625	-58.013916015625	249.99237060546875
9.495	4.222419433593751	-19.62	8.507109375	4.486083984375	79.38385009765625	239.96734619140625
9.506	3.2955468750000003	-19.62	11.7212255859375	3.021240234375	-89.4622802734375	108.78753662109375
9.519	11.984677734375001	-19.62	5.22832763671875	-6.561279296875	-24.81842041015625	-100.7843017578125
9.532	-2.54590576171875	-19.62	12.69120849609375	-10.7269287109375	37.0941162109375	-219.77996826171875
9.543	5.336103515625	-19.62	1.6429833984375002	-18.707275390625	-30.8685302734375	-250.0
9.556	-5.87019287109375	-6.3563818359375	8.72505615234375	-15.55633544921875	11.29150390625	-250.0
9.569	-7.43174560546875	19.390078125000002	7.56586669921875	-6.23321533203125	-16.10565185546875	-222.1221923828125
9.58	-14.5473486328125	19.61940124511719	14.264736328125	0.0	13.2293701171875	-201.71356201171875
9.592	-6.99345703125	19.61940124511719	7.33833984375	-12.14599609375	-11.48223876953125	-162.08648681640625
9.605	-19.62	19.61940124511719	13.630056152343752	-4.93621826171875	-15.26641845703125	-52.9327392578125
9.617	-16.60946044921875	19.61940124511719	12.77982421875	9.40704345703125	9.613037109375	67.2454833984375
9.629	-14.291081542968751	19.61940124511719	8.813671875	-6.8817138671875	-23.712158203125	210.845947265625
9.64	-19.62	-2.57464599609375	16.93039306640625	7.4615478515625	-39.8406982421875	249.99237060546875
9.653	0.7616162109375001	-19.62	2.845283203125	5.3863525390625	-15.34271240234375	249.99237060546875
9.664	5.5851855468750005	-19.62	11.783496093750001	17.51708984375	-18.45550537109375	249.99237060546875
9.676	7.34073486328125	-19.62	11.80984130859375	-2.60162353515625	-74.92828369140625	249.99237060546875
9.689	-8.205336914062501	-19.62	14.56411376953125	-0.57220458984375	-74.40185546875	-26.4892578125
9.701	9.01724853515625	-19.62	4.23199951171875	-16.8304443359375	23.956298828125	-233.00933837890625
9.713	0.27542724609375	-17.64410888671875	12.966635742187501	-16.754150390625	-5.13458251953125	-250.0
9.724	0.45026367187500005	2.2273681640625003	8.957373046875	-16.99066162109375	-6.3018798828125	-250.0
9.737	-11.11528564453125	19.61940124511719	8.744216308593751	-16.27349853515625	-13.0157470703125	-250.0
9.75	-15.847844238281251	19.61940124511719	10.945239257812501	-8.24737548828125	-18.707275390625	-167.18292236328125
9.761	-19.62	19.61940124511719	9.980046386718751	2.87628173828125	37.017822265625	-83.74786376953125
9.774	-19.62	19.61940124511719	10.90212890625	-1.99127197265625	45.0592041015625	29.02984619140625
9.786	-19.1553662109375	19.61940124511719	11.67572021484375	8.41522216796875	18.310546875	182.037353515625
9.798	-12.01102294921875	6.85215087890625	10.128537597656251	8.2550048828125	-31.7535400390625	249.99237060546875
9.809	-2.16270263671875	-19.62	11.42184814453125	1.46484375	-29.86907958984375	249.99237060546875
9.822	7.949069824218751	-19.62	13.51509521484375	15.8843994140625	-30.364990234375	249.99237060546875
9.834	11.70446044921875	-19.62	10.95721435546875	8.6212158203125	-62.75177001953125	249.99237060546875
9.846	-2.596201171875	-19.62	11.04343505859375	-2.3345947265625	-12.8173828125	-19.46258544921875
9.859	10.77519287109375	-19.62	6.33482666015625	-2.92205810546875	39.68048095703125	-216.4459228515625
9.871	1.70525390625	-19.62	16.247812500000002	-20.01190185546875	-6.40106201171875	-250.0
9.883	6.274951171875	-0.23710693359375	6.56953857421875	-9.81903076171875	31.65435791015625	-250.0
9.894	-4.4834765625	18.09437255859375	8.490344238281251	0.579833984375	-12.58087158203125	-241.363525390625
9.907	-18.211728515625	19.61940124511719	12.3535107421875	2.3193359375	49.27825927734375	-205.57403564453125
9.918	-19.62	19.61940124511719	10.272238769531251	0.67901611328125	-20.8740234375	-135.2691650390625
9.929	3.5302587890625	19.61940124511719	3.29794189453125	2.86102294921875	110.05401611328125	19.23370361328125
9.942	-19.62	19.61940124511719	12.8516748046875	-14.9383544921875	46.142578125	15.9454345703125
9.954	-14.470708007812501	19.61940124511719	9.02443359375	12.70294189453125	-9.185791015625	247.5738525390625
9.965	-4.0882983398437505	4.9097900390625	10.4087548828125	6.17218017578125	78.91845703125	249.99237060546875
9.977	-3.4344580078125	-19.62	-1.85614013671875	22.19390869140625	-46.18072509765625	249.99237060546875
9.99	9.49146240234375	-19.62	14.485078125000001	30.3955078125	-43.8995361328125	249.99237060546875
10.001	7.61855712890625	-19.62	4.397255859375	3.47900390625	76.28631591796875	216.60614013671875
10.013	-19.62	-19.62	15.9556201171875	1.48773193359375	65.887451171875	-78.40728759765625
10.025	-0.37122802734375004	-19.62	9.6615087890625	-4.60052490234375	-33.86688232421875	-199.8291015625
10.039	-3.93501708984375	-15.735278320312501	12.171489257812501	-15.35797119140625	-16.53289794921875	-250.0
10.051	-2.3471191406250003	-2.8404931640625	9.69264404296875	-9.80377197265625	-0.274658203125	-169.25811767578125
10.062	1.0777587890625	1.1927197265625	12.080478515625	-0.823974609375	-15.83099365234375	-133.93402099609375
10.075	6.26297607421875	6.8162255859375005	7.5610766601562505	0.08392333984375	36.32354736328125	-98.62518310546875
10.087	4.090693359375	18.31471435546875	11.529624023437501	-3.997802734375	-24.0478515625	-144.3634033203125
10.099	-4.646337890625	19.61940124511719	7.4006103515625	-16.1590576171875	18.9056396484375	-208.251953125
10.113	-17.37826171875	19.61940124511719	15.749648437500001	-45.70770263671875	-25.48980712890625	-164.398193359375
10.125	-15.11736328125	19.61940124511719	6.29650634765625	-13.93890380859375	89.66064453125	-11.65008544921875
10.137	-19.62	19.61940124511719	3.7506005859375002	90.2252197265625	46.4935302734375	223.22845458984375
10.149	-16.31247802734375	0.756826171875	2.16270263671875	7.537841796875	-23.35357666015625	249.99237060546875
10.162	-19.62	-19.62	9.781259765625	16.0064697265625	-196.6094970703125	249.99237060546875
10.175	-1.8273999023437502	-19.62	11.2613818359375	11.53564453125	-101.226806640625	249.99237060546875
10.187	6.0713745117187505	-19.62	10.526110839843751	-5.56182861328125	-11.39068603515625	196.69342041015625
10.2	19.61940124511719	-19.62	3.73383544921875	-6.40869140625	-93.3380126953125	-20.233154296875
10.212	9.3645263671875	-19.62	7.395820312500001	2.38800048828125	80.52825927734375	-250.0
10.225	-0.97477294921875	-19.62	13.8001025390625	-12.48931884765625	-36.91864013671875	-250.0
10.237	-2.7255322265625	7.776628417968751	5.17084716796875	-14.4500732421875	115.6463623046875	-250.0
10.25	-19.62	19.61940124511719	14.679074707031251	0.091552734375	-157.928466796875	-250.0
10.262	-19.62	19.61940124511719	11.005114746093751	-3.15093994140625	18.402099609375	-250.0
10.275	-18.1207177734375	19.61940124511719	8.976533203125001	-6.2103271484375	9.613037109375	-209.075927734375
10.287	-17.248930664062502	19.61940124511719	8.24605224609375	4.2572021484375	13.824462890625	-62.17193603515625
10.299	-16.2142822265625	19.61940124511719	9.6615087890625	7.24029541015625	-6.5460205078125	133.35418701171875
10.311	-10.31055908203125	19.61940124511719	2.0477416992187503	-9.80377197265625	23.5137939453125	249.99237060546875
10.323	-1.1520043945312501	-8.430468750000001	10.300979003906251	22.85003662109375	-68.878173828125	249.99237060546875
10.336	7.7646533203125	-19.62	8.15025146484375	13.4735107421875	70.71685791015625	249.99237060546875
10.348	5.3456835937500005	-19.62	7.110812988281251	16.2353515625	-14.83917236328125	249.99237060546875
10.36	-0.38320312500000003	-19.62	5.61153076171875	8.087158203125	-57.91473388671875	190.5517578125
10.373	-2.51237548828125	-19.62	11.275751953125	-9.2620849609375	-28.350830078125	-118.98040771484375
10.385	0.055085449218750006	-19.62	10.79914306640625	-3.42559814453125	27.52685546875	-250.0
10.397	-1.6334033203125	-10.554851074218751	7.57065673828125	-11.932373046875	48.89678955078125	-250.0
10.409	-2.73750732421875	4.708608398437501	7.92990966796875	-3.97491455078125	-13.48876953125	-173.065185546875
10.423	-7.29762451171875	13.848002929687501	13.20853271484375	-3.36456298828125	-11.28387451171875	-121.8414306640625
10.434	1.8273999023437502	17.967436523437502	11.057805175781251	-4.6539306640625	14.7552490234375	-99.54071044921875
10.446	1.84656005859375	19.61940124511719	9.84113525390625	-3.66973876953125	10.009765625	-103.84368896484375
10.459	6.04263427734375	19.61940124511719	1.7842895507812502	-14.6636962890625	55.0384521484375	-144.1802978515625
10.472	-19.28230224609375	19.61940124511719	12.233759765625	-66.84112548828125	-36.03363037109375	-117.59185791015625
10.484	-14.820380859375001	19.61940124511719	-7.889194335937501	116.3482666015625	85.5865478515625	-28.73992919921875
10.498	-12.214599609375	19.61940124511719	8.16462158203125	11.65771484375	249.99237060546875	161.43798828125
10.51	-17.8524755859375	-17.157919921875	14.207255859375001	11.444091796875	-125.1678466796875	249.99237060546875
10.523	-8.092770996093751	-19.62	10.05908203125	14.46533203125	81.71844482421875	249.99237060546875
10.534	3.0560449218750003	-19.62	10.89015380859375	6.439208984375	-74.8138427734375	249.99237060546875
10.547	15.253879394531252	-19.62	2.529140625	5.523681640625	-37.14752197265625	215.24810791015625
10.558	-2.7399023437500003	-19.62	15.249089355468751	0.0457763671875	-17.4560546875	-58.16650390625
10.571	-0.3209326171875	-19.62	11.02906494140625	-9.52911376953125	16.357421875	-187.52288818359375
10.584	1.32923583984375	-14.20965087890625	11.54159912109375	-5.08880615234375	-74.8443603515625	-243.6370849609375
10.596	4.7565087890625	-7.85326904296875	7.90595947265625	-9.78851318359375	59.47113037109375	-197.7691650390625
10.608	1.53999755859375	-2.787802734375	4.89302490234375	-8.93402099609375	-37.60528564453125	-185.4248046875
10.62	-10.48300048828125	9.75251953125	13.570180664062502	-10.2996826171875	29.052734375	-191.88690185546875
10.633	-4.62957275390625	15.6394775390625	7.9370947265625	2.655029296875	-36.43035888671875	-160.6292724609375
10.646	-11.112890625	19.61940124511719	15.965200195312502	15.49530029296875	29.9530029296875	-116.35589599609375
10.657	-1.9399658203125	19.61940124511719	5.8294775390625	4.119873046875	13.763427734375	-76.446533203125
10.67	3.3123120117187503	19.61940124511719	10.15727783203125	-18.218994140625	-76.56097412109375	4.38690185546875
10.681	-5.49177978515625	19.61940124511719	4.972060546875	-4.44793701171875	89.46990966796875	46.600341796875
10.693	-19.62	19.61940124511719	15.69935302734375	-2.66265869140625	-59.70001220703125	154.2816162109375
10.705	-5.75044189453125	14.18091064453125	8.689130859375	-7.26318359375	20.1416015625	249.99237060546875
10.718	1.9088305664062502	-10.17164794921875	6.667734375	-1.3580322265625	-7.38525390625	249.99237060546875
10.73	1.37713623046875	-19.62	11.244616699218751	13.90838623046875	-47.17254638671875	249.99237060546875
10.742	-7.2353540039062505	-19.62	15.6107373046875	-0.8544921875	-66.97845458984375	205.62744140625
10.754	13.266013183593751	-19.62	4.701423339843751	0.55694580078125	28.2440185546875	61.2945556640625
10.766	1.9734960937500001	-19.62	14.523398437500001	5.95855712890625	-17.87567138671875	-47.1343994140625
10.778	-8.305927734375	-19.62	13.88871826171875	-15.23590087890625	66.8792724609375	-80.169677734375
10.791	-0.5700146484375	-14.85630615234375	6.152805175781251	-10.82611083984375	-13.14544677734375	-247.48992919921875
10.804	-6.3994921875	-5.340893554687501	7.802973632812501	-4.2877197265625	41.290283203125	-226.8218994140625
10.816	-6.18873046875	5.3887939453125	9.350156250000001	-3.0975341796875	-0.77056884765625	-162.11700439453125
10.828	-11.685300292968751	14.8634912109375	13.095966796875	-3.1585693359375	-9.36126708984375	-131.81304931640625
10.841	-4.23439453125	16.80585205078125	9.60642333984375	-1.7547607421875	8.27789306640625	-61.57684326171875
10.852	-2.7494824218750002	17.383051757812503	9.168134765625	4.95147705078125	-19.27947998046875	10.07080078125
10.863	-0.04071533203125	16.74358154296875	10.55724609375	1.190185546875	-8.04901123046875	49.13330078125
10.874	2.212998046875	12.1235888671875	10.28900390625	-6.0882568359375	-3.35693359375	74.21875
10.886	-0.0814306640625	9.836345214843751	11.24701171875	-0.06103515625	13.35906982421875	52.19268798828125
10.897	7.1658984375	7.1611083984375	6.298901367187501	1.35040283203125	29.77752685546875	70.00732421875
10.908	0.08861572265625	-1.5831079101562502	11.92001220703125	0.579833984375	-22.25494384765625	74.76806640625
10.919	4.22720947265625	-10.28181884765625	9.34776123046875	0.92315673828125	-8.67462158203125	26.42822265625
10.932	-0.8406518554687501	-9.433981933593751	10.938054199218751	0.09918212890625	4.058837890625	-13.458251953125
10.943	-1.1543994140625	-5.21874755859375	9.82676513671875	-0.52642822265625	-5.85174560546875	-21.67510986328125
10.954	-1.580712890625	-0.41194335937500004	10.80393310546875	0.92315673828125	6.46209716796875	-14.923095703125
10.966	0.8861572265625001	-0.3113525390625	9.1154443359375	0.09918212890625	-7.9498291015625	-18.65386962890625
10.976	0.3784130859375	0.9532177734375	9.60163330078125	0.0152587890625	10.7574462890625	-2.60162353515625
10.986	-1.7411791992187502	-0.0431103515625	10.84225341796875	-0.5035400390625	-8.3465576171875	-0.08392333984375
10.997	3.05843994140625	0.44068359375000005	7.8341088867187505	-0.52642822265625	-1.0833740234375	-3.021240234375
11.008	-0.15567626953125	-0.0383203125	10.05189697265625	-0.213623046875	15.99884033203125	1.04522705078125
11.018	-1.1567944335937501	-0.009580078125	10.772797851562501	-0.06866455078125	-12.56561279296875	6.866455078125
11.028	1.68369873046875	-0.05748046875	8.976533203125001	0.3204345703125	5.54656982421875	7.43865966796875
11.038	-0.01676513671875	0.10777587890625001	10.145302734375	-0.11444091796875	5.2490234375	5.14984130859375
11.048	-0.6682104492187501	0.08382568359375	10.4374951171875	-0.2593994140625	-3.9215087890625	0.38909912109375
11.058	0.60114990234375	0.11735595703125	9.37650146484375	-0.35858154296875	0.213623046875	0.32806396484375
11.068	0.65863037109375	0.026345214843750003	9.474697265625	-0.34332275390625	6.195068359375	0.02288818359375
11.077	-0.44068359375000005	-0.052690429687500005	10.099797363281251	-0.35858154296875	2.99072265625	0.1678466796875
11.087	1.0969189453125001	0.3688330078125	10.3848046875	-0.06103515625	-11.63482666015625	4.05120849609375
11.098	2.9794042968750003	-0.14609619140625002	7.37905517578125	-0.1373291015625	-0.823974609375	0.3662109375
11.109	1.1064990234375	-0.10538085937500001	8.84001708984375	-0.2288818359375	18.54705810546875	-2.7008056640625
11.12	-2.5674609375	0.0431103515625	11.31646728515625	-0.762939453125	-18.39447021484375	-3.0517578125
11.13	1.8705102539062501	-0.21794677734375	8.3490380859375	-0.25177001953125	11.02447509765625	-0.5645751953125
11.141	-1.4250366210937502	0.02155517578125	10.751242675781251	-0.17547607421875	0.6866455078125	0.1220703125
